File: analysis/data/derived_data/xrd_clean.csv
"theta","BDX14914","BDX14917","BDX14918","BDX14920","BDX14921","BDX14922","BDX14924","BDX14925","BDX14926","BDX15030","BDX15031","BDX15032","BDX15033","BDX15034","BDX15035","BDX15036","BDX15037","BDX15038","BDX15040","BDX15041","BDX15042","BDX15043","BDX15044","BDX15045","BDX15053","BDX15054","BDX15445","BDX15446","BDX15448","BDX15449","BDX15450","BDX15451","BDX15452","BDX15453","BDX15457","BDX15461","BDX15464","BDX15465","BDX15466","BDX15468","BDX15473","BDX15640","BDX15641","BDX15643","BDX15644","BDX15647","BDX15649","BDX15651","BDX15652","BDX15653","BDX15654","BDX15659","BDX15660","BDX15661","BDX15662","BDX15663","BDX15664","BDX15665","BDX15666","BDX15668","BDX15669","BDX15671","BDX15673","BDX15674","BDX15675","BDX15676","BDX15679","BDX15680","BDX16441","BDX16443","BDX16444","BDX16445","BDX16446","BDX16447","BDX16449","BDX16451","BDX16452","BDX16453","BDX17428","BDX17429","BDX17430","BDX17431","BDX17432","BDX17433","BDX17434","BDX17435","BDX22203"
4,44.2932,3.51759,67.3527,7.2361,56.562,132.023,145.438,24.5416,93.1294,63.6418,65.43,85.697,10.2,50.3665,63.1462,71.7315,80.5391,79.7644,125.068,63.3494,41.8743,35.9659,56.9926,82.3768,45.267,229.1,81.2008,30.5658,121.645,89.603,0,24.2528,104.64,0,27.9989,60.1835,0,72.3534,107.836,100.621,117.435,26.3261,135.058,96.8784,39.0401,26.8674,75.8716,43.6214,127.971,29.0816,22.8816,82.9677,0,116.459,147.741,97.5357,10.4472,17.8356,163.185,40.9164,73.931,0,17.4299,0,8.55696,90.8527,108.904,56.4778,33.943,93.3134,17.4953,1.24037,89.7204,64.662,72.7979,21.5084,18.1119,80.1352,108.708,104.507,109.341,96.5254,111.966,192.666,214.066,176.369,0
4.66,307.64,378.793,190.533,186.638,275.684,196.38,312.607,249.667,271.994,329.396,98.1024,194.381,81.7873,22.19,134.07,177.297,155.365,150.11,10.7187,102.354,42.2954,86.1996,160.277,242.783,151.96,247.795,285.893,19.1954,131.15,55.1297,207.684,89.1691,93.9046,68.1995,142.147,79.7555,142.918,120.108,108.598,104.095,18.3926,190.799,82.7143,235.008,123.136,175.841,57.2603,68.8661,130.147,224.36,97.2768,190.864,137.321,84.298,57.4387,168.303,43.9068,84.9685,61.5882,170.269,70.1383,206.747,302.244,177.06,161.264,253.939,339.966,217.241,328.919,299.582,253.704,123.342,341.173,258.753,298.419,202.502,186.242,283.263,123.848,102.545,30.7356,81.6376,100.025,137.951,120.368,48.5055,80.788
5.32,641.6,591.015,706.706,751.01,696.551,503.628,556.75,576.572,533.818,582.354,614.384,79.0171,63.436,209.119,150.707,373.781,226.11,238.542,85.7728,161.756,0,115.565,137.349,257.866,173.763,297.086,445.936,186.102,231.604,139.995,242.495,187.232,228.191,206.512,104.793,101.828,244.216,320.545,227.434,164.158,30.5557,210.286,133.626,236.23,208.657,182.833,231.263,103.188,294.616,175.723,264.292,210.923,203.547,195.914,245.675,287.365,144.776,81.2276,138.283,249.643,37.7857,272.287,360.341,379.474,134.139,450.563,406.383,425.523,524.003,438.396,371.696,403.708,482.585,444.661,441.813,262.935,282.786,321.465,309.493,219.209,232.297,284.313,205.672,215.819,123.158,181.121,185.196
5.98,826.561,789.632,810.976,910.392,571.512,566.996,592.848,853.034,618.095,677.937,721.704,53.6847,201.969,264.355,89.4186,372.566,226.514,227.013,223.196,212.912,15.7087,60.3578,166.835,271.536,280.336,278.137,400.954,246.031,110.338,199.156,180.201,226.35,135.235,197.671,231.138,244.102,261.57,73.9402,87.5575,137.64,160.588,165.243,23.2443,183.608,99.1234,210.681,242.229,206.709,139.596,164.188,308.397,147.235,211.693,255.474,183.353,223.173,172.354,197.462,198.665,101.526,70.8181,346.918,434.378,425.259,133.145,532.889,429.162,335.018,443.631,406.434,326.446,344.288,440.494,409.594,321.906,213.629,388.471,382.71,192.463,109.165,264.413,200.128,261.015,247.297,14.5185,167.032,204.222
6.64,148.724,249.348,352.148,343.452,109.648,278.391,227.976,363.872,220.079,278.226,274.406,88.5894,141.006,212.41,85.7989,257.34,149.232,199.016,117.013,154.505,120.067,136.262,124.071,169.64,210.052,231.488,253.871,38.6099,52.1494,82.7309,76.3259,138.983,37.7466,67.9393,90.3054,86.4312,81.1475,80.2028,156.047,222.842,93.2823,121.654,124.902,129.888,161.115,153.305,192.112,130.081,156.536,87.478,225.215,199.764,75.6796,194.086,110.653,67.5145,66.3718,152.425,218.052,64.7219,97.6271,202.851,225.83,269.069,161.885,298.649,314.724,294.96,250.64,168.709,270.871,252.542,309.387,261.547,188.783,84.6479,186.909,214.934,156.174,169.505,130.782,143.008,92.578,144.543,60.5287,101.232,86.5962
7.3,76.2157,169.556,182.635,198.433,130.697,141.211,75.0059,206.302,181.36,169.799,142.511,69.5969,69.5457,132.776,123.582,94.2497,61.5936,187.177,109.38,185.088,129.199,156.489,63.0459,139.267,73.522,119.915,184.751,126.886,9.2014,0,53.8941,141.578,124.198,71.9039,93.0163,74.8052,141.621,110.872,158.025,179.242,158.001,24.583,0,52.2391,90.7869,169.264,126.86,103.746,71.3759,54.2172,127.217,99.1044,114.45,118.872,95.9882,91.3217,83.4171,71.0405,41.7288,106.846,15.9992,159.624,98.8355,18.5562,197.705,112.328,120.269,22.1488,70.2394,78.3468,106.818,125.773,158.746,65.4541,147.708,148.727,146.464,92.0812,111.205,106.131,81.0749,14.7269,56.8851,36.9961,93.536,86.2606,59.1865
7.96,590.529,492.295,686.09,582.813,522.394,538.555,458.877,548.851,488.915,588.969,537.747,76.4163,66.6445,37.6907,104.016,97.3496,65.3897,75.0808,138.941,55.0611,12.1275,144.079,95.0824,22.4779,75.5169,114.908,78.3561,83.0044,165.79,64.3503,21.0079,65.0426,76.3436,89.4684,1.44421,43.3197,127.093,31.2687,156.748,60.1374,115.946,35.9427,88.5562,0.063923,85.6951,95.7158,110.132,18.3384,0,102.713,53.8818,147.358,22.6466,74.5581,54.7512,24.8899,64.1334,50.791,60.1688,95.9481,53.0331,0,48.6527,220.733,778.451,66.0946,114.748,102.452,0,86.5606,106.269,32.2363,200.388,71.2329,0,178.435,97.4341,86.3212,76.1519,0,61.057,11.892,40.405,56.1558,35.7796,65.6222,70.2075
8.62,2393.62,2186.18,2513.47,2411.47,2077.83,2318.79,1834.55,2163.47,2018.35,2387.02,2291.71,392.066,408.645,295.817,341.094,103.048,74.6075,105.509,637.578,137.404,619.424,734.867,309.946,103.422,241.745,130.599,104.905,416.004,585.42,461.731,99.8463,262.113,98.0084,36.9571,95.1649,109.361,5.09112,38.3075,56.6042,449.568,474.865,73.7501,587.919,382.996,165.33,87.3306,115.571,273.564,49.1634,37.9519,119.481,164.23,70.8192,48.9665,393.844,27.1348,93.1629,85.4737,40.3654,0,47.341,522.897,37.9312,217.279,2976.5,73.2012,37.6028,105.697,114.509,173.297,886.269,290.683,27.3769,191.432,482.939,971.026,633.766,260.977,26.6445,11.8771,8.0279,10.7521,25.6043,63.6293,12.057,126.126,89.9869
9.28,163.813,142.6,134.467,217.259,126.975,143.96,89.6456,137.718,161.307,138.803,152.198,0,99.5132,0,0,43.0813,0,30.5868,185.483,61.5553,142.942,44.4316,65.7245,44.9071,0,6.94968,16.3821,152.776,115.458,32.0971,25.4912,52.7595,0,37.8884,29.1812,114.531,35.4159,9.92692,0,96.471,132.829,0,184.178,31.558,0,83.7636,78.0509,72.8402,0,0,83.9644,51.8324,78.4935,34.8685,44.5624,52.8945,104.255,6.86926,31.8155,51.7016,13.7664,120.468,38.4627,13.0603,323.149,18.2343,102.89,7.31034,22.0789,98.3095,120.21,35.8567,48.278,71.8901,86.9949,270.727,134.355,35.0964,0,11.462,83.5861,19.7821,0,81.614,0,0,7.078
9.94,41.7027,34.9495,0,100.716,0,0,30.0316,0,45.6969,21.2886,11.0443,6.8791,47.6131,0,74.0793,7.83446,67.7046,57.972,66.3031,42.4777,18.8098,0,1.5595,0,23.3985,9.82529,10.0473,18.4746,37.9255,9.95184,31.5391,87.0572,21.3151,69.2421,39.319,46.1677,5.08193,12.2747,71.912,51.3497,0,0,0,31.3761,44.8054,24.4024,5.85323,37.8881,0,39.2731,0,1.5305,71.3235,0,0,14.8804,0,113.313,0,0,20.7856,31.9285,25.8455,34.6164,10.1949,0,41.46,0,38.1119,17.1661,19.731,68.6907,34.649,1.72121,11.1657,22.8459,79.8129,57.5621,0,76.8184,27.1158,5.2558,23.6853,49.2113,1.6283,13.3061,0
10.6,0,24.8103,102.031,43.2141,0.42952,63.6467,0,14.947,57.9172,0,40.8491,0,12.3716,0,39.5306,56.476,2.14079,11.6868,41.142,0,20.3468,8.01602,22.1925,67.8754,32.6642,0,33.4261,10.8426,0,2.40314,23.077,0,60.271,49.1962,0.917832,20.7678,0,0,53.9605,103.89,17.0033,9.79672,0,44.0781,41.2108,26.3384,0,0,0,0,0.486422,29.0015,0,0,0,19.843,5.78161,0,41.6396,0.70118,5.24415,37.4532,6.30979,0,65.6632,0,41.7045,0,0,29.806,0,84.8686,100.631,55.9571,43.0839,47.531,35.604,29.2067,16.7008,4.82888,8.21489,9.09797,21.121,26.0664,13.6991,29.7945,0
11.26,76.6,71.3543,28.3227,92.4716,147.468,171.164,79.164,0,36.5725,51.4818,130.427,67.9883,75.2146,73.2063,0,41.3955,0,46.5915,27.357,0,0,0,31.4222,0,26.8853,17.7783,3.4105,0,66.6751,14.4049,17.2321,1.85982,4.77768,0,5.93895,0,3.76902,0,73.2354,0,30.1081,27.3272,5.96739,19.1234,27.3127,45.9143,52.0076,65.5263,0,56.5201,0,0,0,37.035,44.7202,0,63.6011,0,1.79976,46.4203,17.483,111.812,63.7409,0,0,0,60.8657,0,59.5758,40.4755,0,0,52.0109,0,22.4118,26.5116,32.0226,33.1402,33.3127,0.40227,16.4503,0,0,10.0297,0,33.2185,10.2068
11.92,1171.42,1028.61,1183.15,1192.38,1257.41,1139.79,1084.25,1020.03,829.007,1032.69,919.042,50.2198,85.798,84.5488,35.9191,127.682,171.727,131.5,0,156.396,0,0,27.0972,120.266,86.6912,180.624,79.2899,94.3417,20.4946,68.3432,89.2398,30.1557,87.7133,140.683,178.155,64.9758,75.2187,200.952,254.273,4.10694,105.671,149.68,0,9.69828,76.4639,106.961,37.5526,0,200.163,81.1767,104.304,164.894,70.1065,62.9805,70.6591,190.149,0,165.921,194.245,214.531,90.0618,63.4947,74.8739,116.11,54.5246,165.731,167.433,126.635,66.2884,24.0611,21.2148,57.3977,72.0788,35.059,69.1883,49.2805,5.40392,32.8599,73.0421,34.3857,20.2579,45.6034,23.1754,77.2225,59.5374,35.8131,7.80793
12.58,1912.86,1669.27,1896.74,1741.96,2143.85,2427.65,1793.7,1563.16,1803.96,1925.7,1537.49,39.9127,0,60.2493,75.7876,0,79.999,31.6524,0,58.8932,0,81.7989,33.1576,58.1807,46.4231,31.5756,27.0609,75.6326,51.4005,26.6301,48.06,59.0517,38.5593,21.0242,0,72.0894,25.8687,0,0,91.865,78.7664,125.892,0.202929,39.3615,75.666,113.297,44.3742,68.3363,0,63.98,45.7278,6.10004,92.4118,31.1925,63.4962,51.0541,44.3183,78.4249,86.8139,75.6739,53.4795,7.70181,0,45.729,47.5864,43.4014,102.992,10.0642,88.254,23.8476,56.4319,86.7056,0,0,14.814,44.8457,15.9892,0,144.851,76.1375,123.498,126.855,132.371,84.4589,87.9004,28.2565,36.4478
13.24,90.6534,29.8138,73.5742,108.207,126.344,109.798,134.252,72.7706,80.1919,62.8973,84.7758,67.4747,109.322,52.2763,35.2733,80.7515,0,64.4771,0,0,45.8246,94.6268,65.6753,93.4803,64.5544,72.6506,110.337,69.9807,76.5064,44.0179,89.7776,27.0971,16.2961,128.817,57.0605,0,103.475,71.368,24.1738,12.6788,96.57,55.0691,98.2861,34.3804,68.741,45.6463,117.391,50.6456,32.0697,37.6219,105.904,31.9762,57.9133,48.6481,44.918,47.4997,95.5654,90.7293,34.2697,60.9775,46.8702,39.3293,0,109.445,157.649,85.1476,0,25.5433,0,95.8467,29.7135,26.0951,134.62,106.856,118.118,70.7918,106.428,87.1153,183.584,134.896,171.177,183.783,115.621,169.288,176.648,73.4764,98.356
13.9,307.7,251.205,319.133,274.636,176.778,267.448,273.578,307.805,234.442,264.684,279.913,69.7877,36.9594,108.674,68.9932,85.6482,152.682,80.7637,26.6168,88.959,3.90282,57.9065,17.9764,34.8543,147.472,182.355,190.195,14.5759,97.1919,22.0474,56.9324,135.024,49.6485,99.0542,86.8309,31.9855,164.006,85.7101,115.36,118.008,52.6798,69.3133,77.8614,80.3352,86.3039,72.8796,121.764,17.8807,63.6823,119.547,100.59,70.3402,97.4206,148.263,71.4556,1.61692,94.3604,149.664,102.957,74.4851,115.544,0,91.1219,153.627,75.825,14.6012,49.904,87.2233,104.457,71.4717,105.632,56.7632,60.7006,76.5578,71.7869,29.0818,107.321,32.298,243.671,209.275,117.941,176.157,158.653,156.719,127.928,198.72,194.225
14.56,13.3674,10.7995,0,140.081,72.6601,0,21.2056,96.5218,60.3,18.6877,17.5221,13.3721,27.9092,14.7498,25.1957,7.1217,98.4877,26.976,18.5362,0,26.7482,31.8443,3.81868,5.78119,0,11.1864,57.1831,21.0128,59.7076,0,26.7701,22.7124,0,0,69.349,48.9758,19.7157,3.62659,22.2413,78.7489,24.6239,0,33.2664,26.5887,0,26.3133,0,0.474763,14.4784,1.55811,42.2346,27.6838,62.4632,0,0,36.214,21.7032,60.2743,58.1136,0,34.6547,53.1682,86.3766,0,41.7838,3.34144,11.5531,95.2285,0,0,0,66.3787,0,0,0,47.4118,0,27.9343,78.5739,74.1982,61.1149,79.6131,107.595,117.834,30.7317,92.4125,50.8974
15.22,0,27.8751,19.8288,73.1127,0,0,48.1254,0,25.4235,10.8748,2.33928,53.5363,0,11.2163,11.0294,50.2001,29.4577,14.1164,0,48.179,59.4123,0,57.1212,0,0,75.6933,51.789,60.9437,18.4464,47.0383,48.3408,35.4784,67.2083,53.0469,0,6.09781,36.9676,40.5046,26.4028,35.5775,37.7049,13.7326,97.7577,107.185,0,0,0,12.6441,45.4407,19.1421,41.5891,71.8801,0,39.7984,0,5.7364,3.14241,0,0,0,41.8404,37.5987,76.379,35.9418,116.851,10.7141,58.1447,30.7698,0,0,47.7755,49.7944,31.0066,23.8994,39.3297,55.5115,77.8321,110.051,123.996,44.2832,90.4158,119.407,46.6352,90.899,157.111,18.6911,183.866
15.88,47.0566,71.62,62.6872,0,0,84.3428,66.2481,0,57.5861,19.0215,0,0,13.6721,28.2888,12.1779,0,42.221,0,31.0086,38.1726,0.887055,0,14.1351,50.073,40.5604,65.3895,27.0254,13.1318,0,0,34.1056,0,0,27.7276,39.5367,10.8224,0,38.7541,44.914,0,0,63.974,14.3347,37.1516,43.6156,21.9803,0,18.6366,56.6283,33.0537,87.1713,9.05466,14.6121,31.4461,42.0138,29.4359,37.7986,0,0,55.9408,10.4675,27.0202,0,0,0,9.42472,37.1387,56.1637,150.945,21.5058,0,0,36.941,0,0,0,0,0,1772.4,110.147,1074.68,57.9544,1658.78,15.3933,58.8373,56.4184,0
16.54,86.2458,79.1002,97.8201,191.479,166.76,156.648,105.228,59.2108,66.9959,119.117,169.696,0,14.1535,0,31.5998,29.8277,93.236,58.8772,0,72.4617,0,36.17,0,0,0,2.72857,0,33.6558,0,0,33.1073,0,60.7852,51.5061,70.2374,36.8136,8.13446,0,0,49.4442,13.941,95.6148,91.7889,0,0,71.3033,38.8067,50.6594,75.0314,7.1653,72.2438,112.421,0,71.1724,53.3425,50.095,41.5275,81.629,93.4575,42.3091,0.945072,0,43.1093,135.731,48.8035,16.3486,14.0081,52.1857,29.7224,12.5488,0,33.706,0,0,47.0174,0,0,6.35078,47.9519,24.5655,80.9562,43.9383,72.2438,0.478264,2.12319,55.9658,17.4565
17.2,41.9217,31.7835,0,29.0056,21.4862,13.9392,0,97.0154,62.2255,28.4313,52.8636,0,97.8184,36.4484,54.2323,71.0163,28.9481,0,54.1164,54.3474,94.9587,51.9718,0,23.6558,67.5367,31.4228,2.32091,3.14473,0,0,27.2906,32.4576,33.9954,0,0,0,5.65365,37.3671,62.0049,99.857,39.621,0,0,8.05661,21.7623,0,14.1209,12.4712,25.204,62.4844,0,51.6055,66.3265,50.2356,0,37.2379,58.1678,57.0619,0,9.82244,32.6944,49.5319,44.9128,67.5446,176.177,19.6972,88.1207,17.639,0,92.9637,52.2183,80.7007,36.8075,57.7145,43.5825,50.8103,23.2021,0,71.294,21.5951,4.18531,70.4846,31.8047,6.55897,0,21.9264,33.453
17.86,269.579,341.948,467.415,288.839,299.089,596.478,314.464,261.443,452.289,390.437,380.37,86.449,66.5093,70.2152,67.6894,109.72,0,7.4542,119.127,39.974,147.518,119.843,36.587,12.9876,23.3126,0,7.91214,6.86659,84.9966,108.552,13.8406,0,2.02303,69.2265,0,85.8518,0,0,68.2903,101.007,108.349,48.0738,154.36,95.1085,70.262,0,34.3908,0,3.14018,0,0,0,0,5.19645,11.5914,16.414,0,49.7614,0,0,72.3511,103.588,0,0,179.927,0,43.5528,0,9.48867,34.1381,117.937,33.0598,0,28.4919,49.6141,100.004,105.799,28.8547,32.3827,0,42.2432,54.5128,27.7159,101.897,51.0954,67.1224,16.708
18.52,35.7157,68.4695,48.8514,22.1099,145.512,76.7504,29.4431,15.9644,0,57.3176,4.78624,4.89915,0,11.2658,10.0561,14.5367,22.7165,11.9892,0,115.259,0,8.62098,0,0,16.448,20.0344,42.8331,0.214277,15.9937,73.9238,0,33.622,6.34705,29.7899,62.0804,0,22.7679,0,0,0,40.0832,64.7691,72.386,0,29.0303,0,48.7847,0,10.4147,53.7086,0,13.79,0,0,95.1513,0,66.4821,41.2472,0,55.7861,20.0871,13.6877,29.831,65.2256,0,0,92.3293,31.2785,0,33.0765,0,41.4332,43.4417,27.1555,37.1143,20.668,53.9284,9.89411,29.4154,13.3341,0,2.01197,0,61.167,45.4937,58.9853,37.517
19.18,87.4108,5.02279,29.9835,102.341,53.0391,0.247262,65.5011,0,95.2166,0,55.1706,89.752,33.1268,64.272,122.429,14.1912,53.2802,6.42217,40.5412,3.03901,82.2873,59.421,0,146.024,0,22.6214,0,80.6112,0,23.7244,54.3816,62.3492,54.9018,82.6916,63.1616,11.9207,58.9319,0,34.464,0,37.3933,115.815,16.8024,17.8073,50.9305,12.0643,24.2169,79.2027,44.3164,8.30402,24.8476,47.3653,51.9259,71.6591,111.021,0,73.8007,47.7562,71.4597,10.9281,0,55.2625,17.9398,117.956,90.461,0,26.6469,56.149,0,1.60211,35.0009,25.1084,11.904,87.2059,29.924,52.0897,54.3899,26.1314,49.2265,61.0212,30.4877,69.3931,31.3038,50.7752,94.8337,78.1343,0
19.84,3143.13,3061.77,2851.6,3114.68,2971.73,2909.84,3002.44,3270.23,2740.52,2802.43,3127.38,942.671,1059.51,624.747,936.526,652.645,766.29,799.249,1215.26,572.196,1546.46,1351.69,604.838,629.182,642.105,716.132,677.945,792.496,1160.06,1089.42,574.124,652.624,540.113,686.006,815.296,543.19,437.272,969.391,1048.57,994.776,930.607,601.531,1381.56,698.7,491.646,498.697,487.344,413.859,499.898,369.171,363.171,697.048,256.253,327.515,867.38,484.498,167.683,732.616,636.627,633.325,621.179,984.446,447.103,452.785,1092.84,652.329,702.301,673.538,159.092,472.139,1104.86,621.084,25.1791,526.406,927.096,1538.14,1084.53,614.248,231.043,145.681,161.752,148.123,278.844,296.955,306.945,216.361,121.852
20.5,859.152,969.268,936.177,1012.21,927.197,938.452,895.339,1041.72,819.764,915.946,870.022,472.276,399.88,260.336,446.023,200.526,107.417,188.027,467.878,247.367,398.191,484,231.507,180.817,344.032,176.27,46.2009,304.39,393.834,348.44,245.415,307.247,128.383,139.928,97.8892,239.656,100.63,161.81,206.623,368.819,375.747,222.673,336.374,350.065,137.466,196.201,235.851,297.674,175.491,159.577,141.645,209.536,150.273,145.396,334.357,162.676,32.4953,189.481,167.004,165.211,248.115,346.623,125.887,114.338,360.084,226.167,173.73,215.496,47.5703,175.971,538.111,240.719,139.26,309.755,269.659,334.911,335.375,228.189,17.4595,34.8543,0,60.9101,65.7714,31.5193,0.751412,14.8857,8.90053
21.16,839.704,761.574,791.809,829.751,885.767,600.603,782.879,964.868,657.946,820.483,824.118,145.399,218.579,138.491,75.6553,86.1014,134.971,162.4,140.247,161.37,112.633,208.495,79.7401,151.726,136.764,186.127,79.4106,114.162,116.533,80.0171,200.166,58.4307,162.73,221.166,188.777,176.034,180.706,185.922,104.09,105.035,100.37,150.172,129.733,125.312,130.802,147.6,146.702,131.176,143.998,205.632,235.463,149.036,270.966,114.831,123.82,216.807,96.4058,103.769,64.7068,109.982,166.648,178.541,62.8246,179.687,176.524,147.674,180.471,163.978,89.3467,52.5844,308.938,123.086,80.6607,214.471,99.8749,148.447,183.738,59.1806,69.3429,144.117,238.058,70.08,95.1894,109.054,91.612,82.6,66.9993
21.82,151.109,151.57,198.134,179.703,128.49,119.683,219.927,123.774,106.017,154.056,186.96,66.4639,163.022,0,54.8549,151.637,208.971,272.997,104.713,0,79.1377,14.8675,69.2127,304.927,128.711,161.119,271.049,30.3005,0,28.9024,141.479,14.1879,52.7104,233.678,222.585,196.78,600.478,210.921,180.953,16.3462,23.1952,89.9981,52.5377,48.2691,99.5123,187.058,155.517,94.7912,96.8698,173.416,168.262,96.7849,279.105,224.506,33.5934,126.118,853.967,112.155,187.549,34.5509,75.2396,96.5658,166.447,246.868,90.1435,105.522,116.831,122.689,28.8996,72.71,204.254,63.8074,22.6651,435.714,105.046,0,21.7136,72.3896,891.297,719.36,630.279,685.712,904.642,819.976,745.661,682.225,878.196
22.48,18.1791,47.8875,28.0562,0,111.947,0,62.6432,107.211,64.1867,134.43,12.5961,159.695,236.562,47.3956,166.036,105.359,180.914,169.603,110.865,17.6747,158.285,124.207,124.23,184.917,268.421,107.162,111.848,127.499,92.0612,119.636,170.632,104.229,80.4141,240.808,141.563,154.989,211.327,153.046,154.909,62.5069,76.1024,143.961,40.9651,199.734,136.042,150.415,61.6227,85.2117,113.392,185.781,133.093,30.9322,199.955,223.862,90.3824,86.8237,65.8731,61.2487,114.944,80.9405,108.269,76.7091,175.243,163.051,521.113,151.965,208.271,158.001,216.457,85.0269,331.112,45.3674,223.849,218.662,181.045,101.22,112.078,166.47,132.188,166.074,132.614,91.6141,67.9369,106.334,155.892,187.729,169.221
23.14,670.102,884.205,679.969,654.108,681.655,1183.76,555.927,588.357,1281.21,971.294,1027.41,709.97,499.156,1066.76,861.787,1833.08,2273.21,2219.12,1085.94,1385.26,1118.81,977.466,1096.12,1801.07,1473.24,2309.1,1728.37,1383.32,906.293,1371.73,1438.02,1226.1,1170.34,1877.11,2559.63,1065.2,1021.48,2311.16,2695.14,1182.62,682.628,1720.75,1389.11,779.831,1056.07,1419.64,1019.58,708.956,1657.05,1046.22,1365.62,1403.22,887.935,782.887,762.731,1632.6,149.893,1944.69,1807.55,1414.56,1160.09,580.979,771.334,1449.43,274.738,1797.52,1915.39,1732.94,716.627,1102.42,454.18,709.487,741.712,648.62,898.196,629.086,656.157,753.906,0,114.431,37.3382,157.78,18.2904,43.1129,16.3429,93.5004,0
23.8,321.406,417.596,332.802,375.53,261.109,340.234,392.409,302.564,342.657,295.121,330.087,109.194,66.3034,611.548,123.258,1722.18,2840.23,2095.18,65.601,1514.22,186.727,184.776,133.856,1431.98,556.251,2523.08,1976.34,118.442,2.04211,38.4019,1467.04,37.2647,714.708,2055.83,2758.22,705.465,1733.1,2628,3384.53,125.719,123.164,2260.22,92.2339,94.0185,897.062,1782.44,1033.36,556.991,2052.99,1360.79,1606.2,1896.06,1043.01,989.261,145.23,2198.12,971.888,2140.4,2516.14,2226.01,1553.73,84.9891,1190.56,2631.62,194.882,2249.6,2269.08,2575.72,241.788,184.831,285.901,427.884,271.194,866.684,898.039,143.36,134.437,193.393,214.334,969.006,107.544,877.938,184.644,122.345,283.397,348.575,237.163
24.46,483.687,529.001,534.313,430.522,618.531,496.569,409.449,394.735,409.398,541.175,328.055,16.7363,117.096,96.8859,110.62,7.12472,226.455,247.308,0,150.702,0,119.542,47.8573,256.249,20.075,151.991,368.719,124.217,20.6362,63.4408,105.245,40.7516,55.7843,129.71,217.51,182.709,382.148,231.809,129.141,60.0618,87.6691,175.25,41.2559,70.232,64.0759,115.591,88.5355,0,149.788,93.9376,177.798,158.54,157.523,165.753,83.6862,229.793,706.43,185.941,182.021,120.904,187.327,33.9188,136.093,383.67,56.7174,199.937,211.011,194.278,0,0,100.306,22.1281,8.58859,119.381,64.6898,136.357,69.2896,104.85,1937.62,481.621,1767.73,511.737,1740.52,2635.72,2550.92,2520.78,3384.25
25.12,1865.88,1681.87,1857.49,1826.36,1955,1874.63,1858.73,1655.81,1575.67,1890.24,1416.55,327.563,396.598,155.929,405.384,118.283,19.0526,67.3349,449.271,117.331,274.272,349.417,185.365,115.889,211.461,103.085,22.1118,234.006,255.516,266.151,39.188,183.797,181.394,111.982,40.4018,120.064,0,52.2221,87.669,443.015,351.399,62.5425,263.709,216.531,296.463,157.126,190.654,174.191,74.7231,121.42,72.618,182.208,44.6563,41.8804,181.083,142.914,0,104.28,95.7177,82.7863,163.039,382.093,63.2251,8.77961,410.795,153.003,95.7827,98.1409,28.0469,143.108,474.448,159.916,29.8859,145.5,241.317,183.268,169.938,191.725,15.8231,59.8471,42.9791,39.5277,31.7971,41.5596,0,23.7927,96.45
25.78,553.999,506.981,537.833,503.616,508.463,442.166,508.603,458.959,405.678,592.538,507.957,591.498,562.501,425.851,484.928,518.816,602.785,728.345,548.692,535.609,462.436,410.508,391.256,704.714,517.514,507.859,735.856,351.167,395.004,389.041,693.467,283.763,517.106,648.979,683.487,569.713,937.399,704.286,630.616,460.379,498.655,596.834,447.341,351.284,759.46,807.208,616.509,497.979,593.393,613.806,668.371,416.945,725.61,569.118,301.662,680.658,1106.44,583.562,484.229,510.316,521.535,374.286,723.731,841.839,807.793,562.488,600.314,620.472,447.448,366.111,620.125,342.577,379.592,737.287,589.03,338.088,451.39,434.515,727.727,1132.67,894.029,1015.06,758.639,753.108,521.303,527.188,236.088
26.44,1384.29,1227.69,1406.41,1326.5,1212.28,1158.44,1277.05,1290.77,1143.14,1338.37,1219.96,2048.64,2058.39,2341.28,1976.52,1822.8,1970.73,2412.21,2086.42,1642.45,2199.1,2370.11,1753.13,2380.79,2497.74,2134.2,2108.6,1699.95,1871.62,1490.31,1927.91,1407.31,2102.91,2048.46,2216.61,1718.18,1971.81,2088.77,1861.85,1713.54,1607.69,2096.63,1830.5,1774.75,2220.65,2157.72,2269.5,1969.41,1937.56,2283.64,2033.14,1715.53,1666.39,2019.26,1485.87,2100.74,1625.87,2094.52,2387.56,1804.69,1844.37,1784.14,1986.65,2418.18,3941.63,2503.54,1907.54,2153.66,855.682,1040.55,4483.29,1684.07,973.823,2936.4,2544.63,1927.33,2076.47,1664.56,2407.42,2356.6,1810.58,2058.43,2216.59,2740.07,3030.76,3177.84,4015.13
27.1,423.173,361.436,531.833,565.337,604.032,578.788,560.563,501.161,567.147,547.124,593.627,647.533,779.263,543.779,682.05,586.772,778.686,677.323,448.46,526.907,754.348,710.904,377.962,691.929,665.913,641.629,673.535,486.627,509.756,603.35,624.464,402.753,483.504,652.94,622.026,554.059,537.032,631.048,803.45,518.229,521.97,552.841,584.815,462.164,606.821,799.281,869.305,362.285,564.369,680.52,448.051,510.204,386.622,476.514,399.963,614.485,304.699,543.195,625.511,669.232,511.175,559.527,572.393,667.067,1628.65,654.933,659.381,609.124,753.698,226.576,1196.1,679.924,684.291,708.675,527.751,499.053,614.307,1024.02,0,426.236,0,592.039,0,0,40.3649,31.4189,13.8008
27.76,822.119,796.87,638.848,862.121,795.381,853.355,854.879,772.544,749.662,835.866,830.812,414.852,521.413,657.598,547.058,2219.64,3426.98,2804.1,549.257,1036.29,539.152,451.445,419.576,2225.19,1896.8,2218.17,3974.98,487.891,495.537,458.117,2265.65,441.303,1234.55,3287.58,2693.94,1679.8,6096.97,2535.65,2417.71,563.922,442.318,1481.95,471.838,331.271,1178.15,2168.08,1944.79,582.487,1851.92,2389.59,2568.1,1067.5,3657.85,3177.81,360.972,1515.9,6863.03,2651.96,2147.54,1534.45,2538.81,443.002,3015.97,4244.39,1068.37,1631.1,1831.28,2211.45,852.843,474.707,1377.31,327.507,798.266,3174.99,1366.32,566.928,381.625,354.621,7476.36,6571.53,6817.19,6442.54,6801.16,8503.82,9173.08,9377.59,11202
28.42,439.533,457.731,388.97,378.256,484.677,432.175,566.812,501.13,376.34,485.376,543.602,220.503,324.408,276.006,270.873,402.63,456.02,437.237,235.242,197.191,297.033,323.306,275.987,331.489,200.111,215.859,507.867,277.815,247.456,274.9,175.083,252.857,150.157,370.319,411.891,330,527.309,275.124,279.199,306.939,284.092,162.193,291.326,166.978,113.045,214.034,179.358,95.7008,218.616,228.92,269.007,116.828,336.12,426.362,66.6132,259.174,742.41,217.417,349.076,140.07,275.747,72.7049,216.769,594.725,71.2716,199.974,169.789,244.838,0,79.6448,298.348,120.147,37.1323,197.083,136.454,224.013,265.413,126.146,1808.74,668.258,1850.04,628.324,1611.53,2956.4,2769.45,2674.61,3741.37
29.08,611.165,711.44,594.311,677.836,623.24,547.719,529.109,597.805,635.663,734.117,759.244,830.34,784.026,1220.12,771.725,1173.54,950.832,745.758,663.989,1250.74,505.156,668.161,817.8,1420.59,1051.51,1398.12,1268.2,730.208,608.862,558.516,1441.83,794.745,1149.47,1130.56,1398.15,1238.95,1454.75,1433.63,1158.84,694.007,840.93,1547.05,706.365,837.221,1490.19,1678.99,1574.24,1494.64,1691.86,1532.46,1648.21,1127.13,2427.41,2002.37,609.107,998.063,1470.14,1619.5,758.21,1537.91,1203.91,333.186,1209.05,1033.09,339.633,1185.98,1347.84,1221.12,1238.94,2258.38,484.971,1387.49,1084.87,1344.06,1259.57,553.195,773.289,1075.61,351.709,1287.3,92.8254,1086.31,507.745,100.24,110.545,88.7321,55.2461
29.74,777.92,806.467,739.809,688.917,731.232,755.209,620.01,794.31,966.576,713.587,796.677,821.787,610.038,1178.5,747.923,911.558,814.204,837.504,1170.55,685.979,892.455,1046.47,1297.09,1703.07,1040.9,830.186,936.733,1740.2,1529.88,1965.21,701.532,1193.49,726.681,1052.54,1215.53,702.476,1003.37,1109.35,981.137,1206.96,788.837,796.33,1656.8,1743.82,925.129,696.916,703.83,905.907,670.412,587.194,604.929,625.037,588.824,470.863,719.532,646.894,1796.51,796.056,665.252,556.808,562.788,1022.68,688.256,645.777,1926.27,975.671,966.927,938.119,3157.18,2152.95,606.464,1094.38,3356.23,1000.18,712.586,828.249,690.026,678.556,5812.47,1694.01,6185.44,1720.43,4966.74,6712.81,6333.09,6124.03,2895.01
30.4,153.537,177.193,150.243,174.676,134.721,252.536,150.416,98.7657,233.463,152.616,206.149,180.937,178.691,281.777,265.563,470.209,628.122,511.078,166.017,324.865,143.074,157.254,275.508,966.283,357.101,447.209,899.953,146.592,135.429,151.447,356.87,228.655,276.148,624.741,619.413,375.75,1154.89,682.561,733.492,364.273,231.024,534.605,188.285,232.676,361.819,397.146,348.594,323.562,385.006,315.75,317.52,383.215,502.418,437.26,188.399,473.7,1276.35,407.898,413.649,483.452,400.152,121.728,334.915,665.286,246.903,405.441,281.882,428.203,1204.7,437.819,231.726,434.767,1163.39,331.642,283.453,213.729,148.873,299.054,2684.18,1640.86,1986.15,1646.18,2822.61,2450.34,2202.22,2328.11,2586.5
31.06,268.277,351.177,226.675,317.992,264.592,316.082,245.046,160.245,323.98,366.193,256.279,345.359,220.451,599.375,362.736,1166.44,1364.59,1137.77,301.571,893.684,362.284,258.007,314.198,1423.19,508.673,1398.15,1325.35,338.978,332.282,297.372,1060.34,287.217,576.059,1212.55,1724.32,733.958,1045.02,1743.62,1966.53,406.985,317.515,1512.01,251.663,274.304,841.735,1129.6,903.634,619.052,1152.98,1057.55,967.5,938.499,1298.98,1012.03,139.517,1102,689.31,1603.22,1222.34,1570.7,906.911,243.076,950.88,1171.99,309.025,1676.22,1357.75,1385.77,785.518,782.631,571.926,697.534,832.809,1052.71,873.986,249.449,341.462,436.677,0,686.186,0,732.251,0,0,0,0,95.6166
31.72,11.7848,45.5582,75.4527,97.6828,379.672,95.6187,28.4502,44.2787,84.829,36.8083,83.3048,120.935,160.73,222.028,189.328,309.259,322.946,227.094,193.262,230.012,215.556,205.486,96.155,242.699,243.582,332.34,306.96,147.094,138.021,162.952,275.091,126.351,234.492,260.345,476.473,179.418,238.316,381.628,238.301,193.505,79.2169,503.801,136.203,76.2934,276.82,305.616,264.834,370.389,475.917,328.434,496.439,354.439,406.399,306.304,126.165,352.535,36.0011,346.228,285.363,486.591,285.882,121.413,400.592,371.885,154.923,324.231,383.656,386.937,169.671,447.615,231.224,499.849,270.372,190.394,479.134,165.611,1004.48,479.568,62.39,146.65,108.779,103.475,88.0545,123.183,166.286,175.645,366.116
32.38,1.03775,35.7257,75.85,33.7067,0,0,0,54.3489,28.3736,28.4239,33.619,60.7467,136.664,55.4097,74.0078,0,43.5481,29.6028,46.6431,57.7917,79.3754,40.0234,50.6903,0,2.76555,37.3603,0,20.0497,70.1729,98.9106,18.8739,42.3943,26.6174,0,40.8855,0,0,90.3268,12.2362,29.1518,0,54.3541,116.319,0,7.94627,12.2491,0,5.99287,23.6355,31.5962,77.4938,0,0,57.981,26.4399,70.4083,15.4734,0,0,52.7087,47.6548,0,64.8794,32.1777,206.147,64.332,18.3037,0,182.926,41.888,43.3393,38.3911,198.086,28.5476,34.9447,3.62962,80.476,40.4882,0,49.4125,35.6606,17.804,77.4793,0,21.2036,25.4388,0
33.04,286.383,357.357,408.722,404.996,410.171,267.391,379.638,432.082,351.023,142.181,154.643,143.662,180.797,186.078,179.011,94.8222,247.718,134.448,126.582,382.751,29.9331,69.8098,102.746,233.588,79.8804,269.163,172.009,160.325,177.972,123.114,162.795,142.082,205.842,182.777,219.393,201.821,264.352,310.223,290.863,10.76,440.29,334.953,278.679,71.8755,126.117,265.565,159.458,256.243,412.996,258.859,388.918,489.627,120.961,113.07,531.754,213.573,121.346,72.8773,205.317,332.777,176.381,230.838,140.959,252.466,486.097,165.501,206.012,314.52,425.343,87.4484,6.60382,393.349,299.507,207.422,135.228,10.3327,114.078,63.3497,179.182,276.24,49.4669,276.898,220.353,94.9406,5.96736,30.734,721.079
33.7,0,0,0,77.567,71.3235,0,49.1266,58.8249,2.32804,73.2782,43.3072,55.9474,0,46.8246,0,104.132,223.124,149.201,26.8303,137.806,0,58.751,0,101.346,15.5868,148.487,241.635,0,14.0608,25.5178,74.3643,66.0992,59.587,69.9312,103.159,107.582,241.545,175.776,138.945,0,75.866,45.3275,0,0,77.9187,116.995,128.914,96.2328,206.188,102.149,160.863,53.058,136.189,102.668,0,89.4559,348.323,116.952,102.691,108.299,19.5333,0,93.6195,369.168,22.5042,44.1818,49.5469,188.846,68.0811,0,91.074,119.657,49.4318,56.0596,0,0,72.2606,0,938.684,267.938,995.291,337.91,901.626,1365.32,1245.26,1246.47,1604.81
34.36,301.479,284.564,259.013,328.434,312.456,359.464,256.188,366.117,265.867,296.506,386.017,164.974,125.396,48.5346,144.339,2.14218,28.8628,50.6505,114.365,17.6835,277.574,196.816,98.1757,124.136,39.7307,3.14419,28.6796,178.775,188.744,70.85,27.4714,80.7829,25.6316,3.35792,46.0075,0,73.601,76.1163,49.1057,113.272,108.852,0,228.245,123.636,31.725,0,0,85.9039,73.6702,19.1924,55.4482,19.5353,0,0,95.7729,119.32,44.4825,60.7772,0,0,0,134.186,0,0,846.34,0,61.3534,12.1382,174.275,152.828,333.015,77.7833,160.488,37.9915,102.105,219.434,247.857,70.0494,62.0743,10.017,110.473,70.9828,40.6622,73.9859,76.0925,51.9519,55.5945
35.02,1948.51,1909.93,1775.15,1980.86,1917.73,2098.48,1980.05,1930.51,1775.1,1963.72,1984.24,186.245,131.895,568.949,143.82,760.974,1084.27,876.934,209.613,1208.54,281.52,186.102,176.795,955.482,441.682,1347.05,786.98,96.89,159.603,147.442,775.656,155.843,637.129,767.017,933.929,495.885,874.567,929.222,1429.74,103.736,59.9602,1386.06,203.791,94.653,695.455,914.759,692.678,384.859,1186.33,697.968,826.812,1579.22,313.857,250.138,29.854,1129.75,957.996,831.406,1367.39,1492.85,951.214,71.0993,496.75,971.722,139.345,1053.1,993.439,1078.43,769.742,258.63,129.788,349.696,790.607,224.449,561.219,285.414,158.22,232.51,2208.06,1395.7,2405.72,1555.15,2321.2,1285.44,1590.25,1559.57,1159.14
35.68,995.515,980.826,891.736,1113.99,1109.63,972.343,1056.93,1147.74,1070.73,878.884,855.68,728.291,859.282,907.192,862.239,1084,1594.34,1249.32,670.591,1277.7,733.861,672.164,784.974,1480.8,553.721,1321.49,1924.41,649.788,983.86,725.299,802.478,526.954,621.778,1281.93,1186.83,783.772,2557.53,1840.84,1794.49,996.192,1160.85,1447.15,929.293,667.475,822.983,1123.82,852.455,820.067,1578.81,1053.35,1532.72,1246.53,1018.51,1110.44,1141.26,1758.01,2636.29,1019.62,1072.78,1355.48,996.765,820.298,874.654,1880.95,1453.53,1027.92,1015.65,1496.55,1456.71,618.245,734.416,1057.16,1336.11,991.46,963.876,731.505,549.061,538.12,4815,2624.53,3791.74,2554.67,4689.75,3984.03,4159.28,4088.02,3726.26
36.34,168.756,164.865,120.725,177.854,100.74,57.366,199.029,162.251,199.337,150.726,217.853,195.026,131.269,160.864,203.259,353.094,344.572,344.796,164.905,91.282,144.002,192.109,233.338,303.858,323.54,291.513,320.964,158.389,205.786,199.017,263.526,253.272,187.173,315.144,314.635,299.391,409.143,293.775,143.317,193.723,127.832,260.873,250.586,218.847,263.398,283.71,301.012,171.684,267.548,390.512,295.957,101.446,409.994,433.596,51.1056,266.255,508.188,415.55,262.45,292.677,225.232,127.41,324.083,381.288,70.9551,281.701,382.793,252.417,400.542,192.879,211.576,158.722,379.031,433.991,209.845,178.713,243.313,179.059,32.6863,423.41,14.9909,451.977,98.0043,75.7486,54.859,101.735,95.1074
37,0,28.103,7.16746,16.5776,34.0305,41.244,0,10.4685,13.2516,104.737,33.9924,59.7444,67.4533,12.6543,31.1807,226.232,412.765,294.56,12.2261,158.015,1.86732,102.749,9.93088,0,128.69,317.046,314.836,52.1575,81.3393,82.3671,317.755,71.3581,23.2905,260.788,427.804,126.24,165.573,326.304,194.593,4.5451,0,423.959,91.8539,0,73.8874,430.381,221.029,0,417.629,476.736,504.368,131.42,301.142,367.876,62.6133,518.675,254.959,333.251,461.652,414.254,299.692,116.011,294.008,521.892,94.384,288.953,278.187,429.003,0,32.2316,192.492,94.0642,18.5177,280.749,67.6297,12.7837,53.2286,84.8121,58.1156,166.814,0,214.666,60.1851,61.7862,7.33849,8.25114,63.0979
37.66,279.09,370.465,401.828,378.681,386.289,351.066,430.339,222.751,314.27,269.179,325.839,0,14.6312,34.6721,61.3989,101.012,100.76,70.4716,47.6229,133.343,67.6737,4.34352,71.9737,0,82.626,90.1953,166.972,62.5018,19.469,40.7435,95.9934,0,109.241,64.18,57.8514,153.455,101.79,90.6321,86.7136,0,26.0619,114.239,47.6288,25.1877,168.75,225.654,83.4935,63.1662,117.86,130.023,159.901,126.446,127.654,158.477,0,123.589,153.702,114.768,168.143,203.094,95.5959,0,208.958,113.215,129.577,82.1516,137.99,82.7344,0,92.5326,0.0871254,116.343,0,130.65,71.7562,50.4761,7.60704,128.71,119.819,45.5009,120.125,43.591,109.723,69.5794,0.590906,0,77.7191
38.32,609.625,760.838,666.453,659.273,652.558,563.973,619.718,645.806,423.91,612.382,587.608,0,0,0,19.6072,5.8934,0,0,20.4143,6.55569,32.0734,55.9388,23.0307,10.5877,36.4672,37.225,0,61.8278,25.156,76.07,0,34.9591,0,0,1.80809,23.6539,0,82.5639,11.3506,0,81.9397,92.044,88.1779,0,0,0,6.98672,35.2301,0,0,11.7138,32.3169,17.7205,0,7.95779,0,0,0,12.1039,8.95077,76.0428,68.7805,13.2525,0,69.7983,0,0,25.6058,2.61789,25.0159,28.9451,4.49402,45.2152,59.8137,75.249,0,34.1489,0,0,0,0,7.37174,0,0,0,0,0
38.98,173.849,157.163,140.803,252.441,147.981,91.1957,205.083,221.986,165.399,245.599,203.1,98.5668,101.743,49.8823,159.104,106.344,98.0402,70.7252,173.687,78.067,108.192,86.2093,158.218,103.454,86.2947,124.342,112.281,83.7815,103.32,112.719,96.7013,98.0504,97.0245,128.165,141.876,35.5069,170.577,212.609,146.827,120.705,70.2261,93.0571,133.023,84.4961,137.124,102.089,68.1452,85.9817,53.1823,161.839,46.6752,51.8854,145.62,181.048,100.994,143.68,287.241,68.39,92.3966,60.4233,128.669,0,138.392,142.96,0,92.4478,62.4162,38.0037,89.299,235.608,19.8689,143.288,71.7589,69.6491,100.768,111.851,159.793,148.776,424.494,242.012,713.024,278.575,404.33,370.692,466.792,502.921,153.056
39.64,228.614,299.083,173.015,262.484,224.15,215.939,192.938,160.7,387.26,168.408,300.266,483.098,477.24,518.258,460.354,410.526,482.245,509.697,746.029,419.275,665.921,690.342,590.928,478.579,723.977,466.375,373.803,917.33,618.004,712.347,489.91,676.481,423.355,409.624,372.175,590.83,112.823,306.818,181.395,594.486,424.177,313.728,807.096,509.664,381.007,333.733,361.288,493.431,289.677,324.876,253.287,439.75,276.411,185.964,286.295,388.169,146.746,231.671,276.513,222.912,256.693,448.947,320.856,310.424,462.432,407.164,406.68,332.026,706.535,860.581,274.275,339.321,722.251,320.625,265.505,501.354,493.466,300.703,149.186,51.3823,86.1738,110.739,114.45,185.298,167.256,182.057,170.336
40.3,1269.62,1199.14,1298.22,1379.67,1280.78,1791.8,1426.92,1285.17,1225.75,1442.85,1336.5,1708.4,1875.96,1249.87,1464.49,1135.49,789.193,921.179,1809.61,1022.59,1899.93,1315.94,1005.29,1309.4,1218.33,757.476,739.221,1110.48,1219.41,1315.72,1063.69,1014.59,966.369,862.242,675.181,1126.2,1100.05,1110.25,1381.84,1770.93,1267.83,1128.35,1593.96,907.967,1077.91,1150.82,911.07,931.896,848.209,807.457,1030.4,754.876,771.091,682.312,1170.85,1363.25,774.577,707.838,896.69,872.241,985.109,2017.01,1133.18,1347.99,1587.12,1026.24,1313.02,1193.39,745.929,645.556,2407.37,806.313,625.098,1776.93,1218.43,1122.51,1311.54,1059.97,802.112,702.596,846.13,714.46,687.395,579.15,628.439,593.883,693.371
40.96,162.266,193.171,140.377,196.815,70.6465,104.635,170.567,165.599,343.94,169.151,117.994,51.0967,145.968,131.1,143.203,79.8981,243.627,210.525,0,365.428,61.3311,42.8592,47.353,210.341,91.327,251.551,377.255,125.242,78.6434,119.04,184.765,32.1192,156.518,169.108,109.855,69.1514,408.043,249.083,298.768,29.1529,196.839,228.607,137.534,23.9643,122.459,203.189,257.845,124.642,356.061,189.55,341.919,254.592,116.46,84.978,213.793,329.998,260.562,27.2206,143.221,215.93,147.729,141.052,178.156,240.493,147.544,64.1296,109.871,335.419,228.616,131.116,37.6113,147.539,243.144,92.8021,84.3769,63.0413,64.2113,97.1819,235.721,297.609,149.867,272.188,252.02,241.342,151.517,182.328,17.0129
41.62,0,76.3185,0,7.21713,38.426,0,48.3998,10.7468,11.8851,0,0,72.3386,43.329,18.6481,40.2122,0,6.26461,1.18481,0,90.5012,6.11303,22.9405,0,10.8666,0,0,50.9793,7.28571,83.0679,10.4839,0,33.9723,16.8213,0,0,99.7211,0,40.6447,90.3085,46.1047,30.1522,42.5016,66.0052,84.2406,0,73.2426,4.86022,0,31.3413,0,0,37.2106,81.1935,0,46.7282,17.4475,106.364,0,0,72.9559,38.32,0,44.0225,0,172.644,30.8824,71.5567,33.27,100.158,37.0915,47.805,108.993,66.7868,29.1022,0,89.9953,97.5596,78.29,56.8211,101.404,8.59056,93.914,8.92917,49.7237,5.49048,60.5263,5.09929
42.28,293.866,242.831,233.78,261.418,244.327,286.15,233.506,299.755,235.892,177.493,188.505,84.4565,121.963,286.29,122.67,357.068,578.575,598.831,72.1033,333.314,71.5631,92.5013,154.616,473.34,432.967,554.242,687.406,51.9003,63.9403,72.8711,474.374,49.3351,314.32,534.92,585.247,313.452,802.945,525.162,449.425,154.872,129.081,460.55,75.7856,128.472,293.915,406.581,433.926,362.111,406.447,445.016,473.049,367.543,478.614,395.515,93.1362,577.617,1007.53,452.001,539.253,483.163,450.939,76.1816,376.352,635.391,172.493,463.594,501.296,554.054,334.158,174.401,343.784,280.658,292.551,291.527,331.247,106.157,135.229,194.255,1664.41,922.059,1664.6,808.4,1689.49,2146.97,1779.17,1794.32,1136.24
42.94,172.072,294.493,159.667,149.195,174.991,244.077,214.459,173.504,201.374,233.421,185.211,156.701,125.269,131.267,203.299,239.408,181.478,148.65,136.895,143.356,161.258,71.8848,100.14,388.134,93.3828,154.502,258.177,184.043,89.8383,207.347,98.564,220.105,149.22,179.551,205.201,186.903,284.056,174.642,242.932,129.441,213.083,101.036,133.9,205.304,131.974,123.801,230.296,181.649,127.992,133.444,130.944,92.8626,131.024,167.2,126.988,140.185,399.47,216.444,187.34,177.326,156.208,68.7044,134.37,215.415,0,118.859,156.014,88.9063,513.636,358.49,6.20512,181.156,476.565,163.254,103.884,134.606,141.023,201.787,796.066,402.777,643.68,436.562,786.471,625.403,565.806,622.956,585.321
43.6,86.0783,128.016,141.142,75.0249,153.097,144.587,120.087,141.383,129.15,71.1549,162.226,84.9476,68.7476,107.113,83.5277,100.897,27.7494,97.8282,221.733,40.3713,191.225,107.459,140.61,119.314,14.1461,85.5335,107.372,211.672,218.398,167.87,110.052,91.7227,9.77798,72.2956,86.9229,84.3754,78.7092,22.0273,54.1021,162.895,104.284,64.877,287.392,116.38,82.3269,80.8256,108.334,65.2085,52.4141,31.6254,146.425,95.1654,119.054,19.0471,55.7358,1.15895,34.2204,33.1332,48.4896,0,66.7006,77.6786,48.9147,57.1914,59.6327,131.281,104.696,132.429,235.011,240.747,77.5183,44.6521,175.161,133.513,95.4581,176.185,119.202,69.1042,31.4732,21.6341,41.2536,0,8.2598,0,77.0444,33.4933,54.4244
44.26,9.26499,56.3323,13.3333,52.4584,0,29.1076,0,0,0,62.7935,51.4053,18.2257,19.1769,12.4507,55.1439,150.42,159.564,159.475,33.6178,69.8841,7.46528,0,11.0885,253.104,58.5772,227.397,100.167,0,0,0,98.4417,28.0325,26.7602,161.724,295.566,48.553,293.267,266.67,197.386,31.0725,19.0783,232.539,4.84664,19.1827,66.4729,150.951,217.23,117.726,232.469,154.344,264.78,77.4577,321.001,209.56,0,239.003,299.78,262.161,182.48,237.241,210.367,57.6441,76.1968,263.533,0,135.991,81.7031,199.771,133.539,198.12,0,116.39,95.1011,149.852,167.448,5.52781,49.3387,54.636,497.688,323.171,472.993,359.811,428.215,541.827,601.341,480.002,129.767
44.92,256.12,277.714,191.712,292.428,208.773,228.211,306.834,252.052,273.025,283.763,253.763,198.235,174.06,337.815,193.881,384.012,423.728,459.808,241.741,298.174,313.117,390.174,244.297,428.094,323.494,489.495,407.523,206.827,349.554,178.828,448.762,211.155,357.533,427.645,559.733,282.548,422.568,404.37,313.543,163.445,190.019,388.511,220.507,241.062,335.666,488.274,358.923,295.251,398.382,384.178,364.009,305.736,387.962,461.223,150.753,336.995,631.563,371.97,456.594,393.019,416.993,222.593,367.542,531.971,601.839,371.116,323.322,364.874,391.664,249.098,649.245,302.154,291.671,373.585,420.714,251.671,223.269,130.524,718.661,484.327,804.489,487.254,662.875,719.103,640.534,684.72,453.163
45.58,415.273,427.749,460.867,312.087,422.324,477.098,475.503,335.061,413.284,426.643,387.676,161.13,214.304,199.808,68.2124,113.408,79.2056,117.052,123.763,108.376,159.928,144.31,37.7688,66.4553,214.21,141.573,73.9302,115.385,155.683,53.9044,176.96,117.838,67.3719,68.5745,122.253,177.223,104.801,125.381,115.807,157.625,77.6602,119.112,129.751,103.991,200.84,166.7,179.773,132.828,118.897,243.092,173.949,95.6617,138.128,123.439,88.3475,185.034,156.917,122.818,240.342,120.271,215.912,89.7608,125.25,206.186,274.232,130.999,179.513,150.597,69.7759,44.6922,321.729,109.492,42.5664,152.567,224.686,97.6072,184.553,156.633,222.982,93.319,221.925,98.5634,147.038,204.801,230.216,171.778,322.846
46.24,126.466,46.3575,91.6675,60.6979,65.0154,74.7528,39.778,10.9492,153.858,121.153,78.2321,36.4492,0,62.9355,56.3759,35.4908,23.2362,52.1024,52.426,25.9129,24.7551,4.38722,83.015,77.5654,46.9058,7.89758,52.6223,75.3742,13.5358,10.1275,0,48.5229,11.6592,98.9603,0,17.7776,90.7196,66.8509,26.4889,73.4428,27.0053,61.3688,12.1851,18.3908,97.1705,34.9296,28.2714,52.035,47.8441,101.696,78.9201,32.2779,24.9013,12.3147,0,124.744,0,12.49,0,0,22.6587,81.0717,0,124.111,36.365,16.7304,50.9499,0,106.256,11.9273,128.802,37.6697,43.9459,31.0098,57.3077,118.279,72.9902,9.30708,43.2388,102.965,55.9407,50.8018,35.9416,0,20.457,61.5399,145.273
46.9,82.096,167.176,180.014,100.158,86.961,125.148,115.373,129.821,42.5252,162.09,125.307,43.2831,109.896,149.64,151.074,138.691,214.808,129.611,189.516,141.205,148.882,118.535,126.665,286.961,136.277,175.233,271.582,125.911,127.829,52.5392,248.687,124.907,190.386,155.09,158.739,107.351,365.243,197.981,232.517,112.206,140.113,123.386,94.4342,145.329,243.599,217.05,170.054,159.007,171.909,146.308,271.733,190.066,307.141,214.164,107.566,107.243,345.242,302.923,167.049,157.094,232.113,53.6513,108.847,169.084,58.7657,133.533,222.422,147.746,190.8,433.07,69.2796,122.31,196.925,225.311,114.177,104.944,144.961,193.079,535.052,285.076,409.833,413.756,399.899,552.297,450.573,472.007,514.677
47.56,4670.61,4563.46,4881.3,4203.87,4505.87,6299.83,4987.12,4586.38,5540.25,5487.99,5409.33,1778.18,1729.25,2142.05,2048.86,1366.63,893.932,1054.8,2887.39,975.604,3060.19,2817.28,3133.46,1859.22,2151.2,1056.74,765.901,3130.23,2808.23,2978.55,971.005,2566.83,1137.4,1299.36,805.351,1910.81,445.363,651.15,483.057,3312.21,2009.57,708.747,3524.01,2944.81,1368.14,904.184,1105.78,1422.87,970.599,597.6,891.748,835.868,1120.43,890.775,1845.03,576.608,289.723,1262.17,525.312,482.858,515.363,1138.43,483.143,400.127,864.549,772.684,1031.91,744.411,1070.17,2245.07,674.024,883.044,950.121,471.878,970.907,2242.72,2136.5,2045.13,25.283,137.231,27.1275,152.659,37.6883,136.094,47.3096,67.965,44.2335
48.22,208.224,183.545,84.3903,223.837,66.2221,135.383,117.711,207.582,93.0005,139.614,176.053,232.283,227.016,129.347,165.618,174.115,105.016,68.4425,203.361,158.109,199.087,305.586,235.743,128.368,149.912,0,144.209,280.417,136.578,200.136,56.2996,330.162,176.194,12.8839,51.4404,125.032,111.098,29.8252,33.5953,212.2,169.348,68.5337,250.519,230.543,176.019,122.35,79.4777,208.699,112.582,87.329,63.0627,165.847,51.5639,52.8954,37.0789,27.5905,153.069,40.563,128.211,157.969,125.996,107.366,16.5507,9.01334,59.1678,115.596,104.206,2.22535,275.553,386.243,50.1949,104.393,266.858,63.7307,120.34,145.296,245.39,185.771,379.328,79.7171,378.796,167.978,357.422,528.328,575.686,562.861,723.23
48.88,32.3026,46.1427,0,115.424,46.1671,105.95,0,26.5303,128.053,130.715,109.881,193.483,93.8463,158.448,135.619,144.205,102.286,167.208,248.089,104.874,225.773,223.248,223.668,111.964,204.14,90.5945,86.6646,288.908,243.505,327.05,117.491,200.23,172.894,61.4486,101.938,147.054,29.9655,162.532,43.473,186.496,95.613,103.658,245.64,373.509,98.4472,90.7525,80.4738,146.267,57.1283,63.499,9.3057,118.036,184.969,53.9276,0,39.9639,167.325,97.2408,102.722,83.6075,19.2449,157.685,64.9363,48.8908,57.1067,120.003,162.879,87.3347,261.808,417.915,95.3014,107.559,340.722,111.576,47.8012,178.807,150.616,106.095,167.93,31.4675,119.87,50.8594,105.332,121.126,82.6806,55.6999,88.5306
49.54,168.694,172.726,143.18,228.57,155.279,223.361,91.6277,205.868,175.64,181.682,89.8876,171.151,237.041,38.023,83.1728,113.632,482.615,402.342,117.107,277.277,79.9497,64.034,54.7607,111.515,95.6028,278.066,506.768,94.4978,166.656,50.2046,269.743,85.6703,132.131,305.209,211.123,105.784,691.972,420.226,473.422,48.8608,283.633,360.171,179.38,29.3936,5.40822,208.74,252.025,84.8222,437.385,232.365,546.387,342.77,218.55,154.291,303.312,503.443,495.932,133.097,270.409,290.725,273.368,141.173,269.107,567.219,263.296,102.752,147.192,373.17,8.90325,23.8417,39.9138,150.406,25.7567,201.636,85.6036,100.868,64.9055,63.9823,785.753,509.035,977.903,468.369,738.238,1064.46,945.468,888.143,1083.01
50.2,980.143,832.569,746.952,662.365,1012.57,1168.56,948.157,586.969,1168.4,1089.67,819.787,1078.85,1326.66,1098.53,1275.14,1704.41,1306.58,2099.62,995.19,1151.85,1373.95,847.429,1567.63,1078.82,1265.74,878.869,2592.01,849.385,684.764,1383.69,1530.26,1074.31,1029.61,1252.23,1243.52,2118.26,1423.04,1324.79,1612.39,1498,1114.58,1120.34,1511.57,746.972,1649.74,2237.01,1327.73,1006.93,1188.56,1203.89,1602.38,1122.91,1678.76,1160.96,1219.23,2256.48,1392.36,1114.07,1063.96,1253.3,1429.95,2044.78,1888.59,1430.14,1260.81,1102.8,2185.45,1678.13,1279.04,982.751,2662.59,850.276,946.901,1715.39,1547.92,949.66,790.982,1136.81,722.902,1097.72,753.099,938.556,701.994,493.052,610.482,581.625,542.401
50.86,204.796,204.677,140.54,155.416,210.853,166.342,223.257,230.99,190.466,176.99,135.713,6.99226,73.4586,18.7306,11.7615,65.4709,11.0876,104.722,18.848,0,10.7572,22.1801,29.3607,153.073,0,8.23351,60.8759,78.3054,80.4847,34.5589,6.02263,0,0,24.7758,89.4159,19.1902,0,92.3549,168.467,5.219,2.16574,15.5621,42.0875,8.0349,33.2125,69.8925,0,10.5939,0,25.0406,0,2.47491,50.7086,37.7541,0,78.5441,46.347,24.8358,42.7114,0,0,0,60.7345,50.5557,247.686,84.8234,51.3698,75.8141,82.8318,7.27535,32.253,28.58,67.9543,0,36.074,17.2553,60.0142,0,4.95841,2.82041,10.4548,0,13.1389,67.0738,15.0782,60.2666,26.2977
51.52,22.5663,2.64849,38.7661,8.75222,38.3382,31.2106,7.07959,21.5536,26.2496,59.2887,0,0,51.4555,0,47.6539,152.762,233.501,220.517,28.8811,20.1258,4.01297,0,0,174.448,142.664,102.947,293.332,25.1459,39.9711,0,213.139,0,64.9032,337.611,198.943,95.1756,506.553,143.517,103.573,59.171,0,119.652,16.9161,0,73.7723,219.904,187.565,0,182.745,190.268,264.863,58.1857,491.285,311.711,13.034,82.8532,484.104,178.584,116.527,41.5879,193.993,0,291.351,342.589,21.3889,103.576,174.832,136.618,24.7027,67.7495,105.905,29.5855,0,405.67,109.572,94.8702,14.2031,0,869.768,579.521,569.874,611.012,776.071,913.722,1056.17,1132.68,1394.11
52.18,27.8016,24.8944,22.0552,28.3716,0,0,0,29.3645,0,24.9181,11.3977,99.4628,9.35664,209.344,48.1849,523.467,487.073,363.981,95.939,596.422,54.3286,106.51,168.646,426.812,281.141,665.483,866.599,53.6326,72.9464,56.2809,808.213,29.4211,261.979,682.834,869.341,511.34,744.77,719.997,592.43,47.6241,18.8337,1023.71,1.04818,114.609,575.381,1023.29,760.38,473.01,868.261,864.656,999.878,455.919,908.875,814.614,6.81227,890.453,643.424,534.298,460.811,979.991,601.8,44.3214,667.694,599.324,91.4724,535.177,562.29,754.419,566.987,533.617,138.5,262.437,543.164,399.372,400.929,30.2126,58.0456,205.267,666.403,529.123,568.916,529.023,722.878,627.346,530.986,478.336,280.606
52.84,57.8618,18.7458,49.747,49.2447,0,29.1984,37.7911,29.0938,103.274,4.95392,46.5192,0,0,111.972,15.1561,31.6619,168.974,111.135,0,31.2891,0,0,15.6003,96.5013,128.157,87.8654,160.056,4.28121,0,69.5431,70.6537,21.1116,5.78128,109.939,156.215,118.956,241.411,200.74,144.318,0,8.62047,122.95,42.9306,0,57.3775,80.6048,76.1752,25.8967,101.005,70.8766,160.624,0,305.57,215.822,35.0513,7.36348,290.503,151.209,33.1325,59.5593,78.8365,0.495429,141.263,73.2122,68.9275,36.8134,61.7837,19.1773,239.375,292.826,36.3959,30.0645,259.065,136.906,43.2911,98.3618,0,64.7845,441.002,243.599,290.185,276.783,459.329,419.005,358.117,389.769,323.896
53.5,97.4362,31.9472,6.68393,100.477,48.6475,68.7624,24.6037,84.6381,58.198,49.3155,33.9241,51.065,0,0,25.4463,19.8077,68.7033,45.4057,60.8475,24.4299,29.7088,25.0544,45.5439,80.7923,0,36.9103,107.13,11.7156,0,0,7.80183,0,0,77.4358,123.99,85.5444,123.544,80.3903,46.7395,4.97834,26.4535,15.7392,56.3316,16.757,0,66.5364,73.7374,34.2404,0,65.0465,48.7596,0,170.853,59.9073,53.2584,65.7788,159.691,97.9113,0,0,20.537,8.83262,25.3072,90.3001,0,10.2583,59.5218,9.06612,58.0628,78.2359,0,12.7469,8.51934,81.5847,57.589,0,0,0,167.196,90.9212,120.459,182.752,249.031,215.795,323.752,189.984,252.625
54,308.753,240.203,208.126,293.497,121.707,237.298,190.732,209.776,276.266,170.042,173.762,111.035,150.202,94.3621,117.885,3.03267,17.7047,66.4572,111.811,165.77,80.2451,56.4746,63.2794,0,10.7404,137.642,28.6949,75.7941,171.067,128.056,49.7573,126.086,130.851,0,23.3521,35.5929,36.1221,6.7537,61.8724,66.3423,257.104,131.902,199.951,108.214,78.5424,0,69.5713,134.177,92.0883,54.1645,69.166,207.784,34.4437,0,237.849,50.5941,22.6666,0,30.5431,71.7359,65.6001,125.962,34.0347,0,422.308,34.4541,0,25.45,0,58.8979,34.0625,141.756,23.8698,43.3661,0,88.7633,170.172,32.8793,0,0,4.31103,0,28.5885,0,0,32.7397,360.157