File: analysis/data/derived_data/xrd_raw.csv
"theta","BDX14914","BDX14917","BDX14918","BDX14920","BDX14921","BDX14922","BDX14924","BDX14925","BDX14926","BDX15030","BDX15031","BDX15032","BDX15033","BDX15034","BDX15035","BDX15036","BDX15037","BDX15038","BDX15040","BDX15041","BDX15042","BDX15043","BDX15044","BDX15045","BDX15053","BDX15054","BDX15445","BDX15446","BDX15448","BDX15449","BDX15450","BDX15451","BDX15452","BDX15453","BDX15457","BDX15461","BDX15464","BDX15465","BDX15466","BDX15468","BDX15473","BDX15640","BDX15641","BDX15643","BDX15644","BDX15647","BDX15649","BDX15651","BDX15652","BDX15653","BDX15654","BDX15659","BDX15660","BDX15661","BDX15662","BDX15663","BDX15664","BDX15665","BDX15666","BDX15668","BDX15669","BDX15671","BDX15673","BDX15674","BDX15675","BDX15676","BDX15679","BDX15680","BDX16441","BDX16443","BDX16444","BDX16445","BDX16446","BDX16447","BDX16449","BDX16451","BDX16452","BDX16453","BDX17428","BDX17429","BDX17430","BDX17431","BDX17432","BDX17433","BDX17434","BDX17435","BDX22203"
3,49009,47744,49186,48603,49884,47884,49034,48680,46252,48552,48308,47904,50020,46997,49207,46467,44625,46059,49129,47282,46706,49324,47435,45095,42082,41355,39033,40100,42310,49532,45221,46849,45894,46984,46270,47695,45660,45987,47389,46978,46900,45623,47761,46016,46429,45536,50573,46134,45003,47220,45168,47452,45120,46721,47542,46623,45598,46240,45448,44502,46048,48062,42582,43108,45951,44662,44248,44418,46758,44300,46243,48206,44514,45021,49012,50152,48276,47137,27443,28364,28185,28041,28208,28253,27196,27585,28930
3.62055,15157,14877,15545,15372,14710,14082,13265,14768,13103,14742,14874,14640,16735,13980,14889,13503,11988,13276,15671,13994,14095,14346,13276,13939,13224,12869,13308,13476,14995,13845,12304,13158,12533,13251,13300,13864,12486,12794,13643,14206,13947,12411,14332,13149,13007,12732,12861,12647,12272,12173,12565,13889,12244,12785,13547,13019,12448,12669,13002,12363,13469,12633,10549,10331,13080,11633,11046,11111,11311,10975,11953,12043,11117,11717,11900,14284,13139,11612,14230,14996,14842,14345,14827,14936,13801,13630,14089
4.24109,14604,14291,14689,14418,13643,13050,12670,14385,12553,14076,13851,13236,15221,13142,13748,13136,11508,12712,14453,13225,13062,13533,12698,13426,12412,12500,12764,13107,14454,13105,12017,12279,12094,12523,12500,13029,11682,12188,13129,13363,12829,12156,13507,12354,12435,12110,12543,11860,11650,11625,12326,12761,11328,12041,13060,12324,11826,11889,12174,11817,12479,12430,10506,10164,12436,11256,11265,10949,11047,10963,11655,11851,10932,11657,11975,14008,12777,11923,12199,12908,12760,12056,12938,12643,11386,11625,11838
4.86164,14637,14378,14667,14679,13248,13156,12555,14507,12610,14008,14059,12362,14499,12360,12944,12786,11089,12191,14053,12866,12292,12665,12357,12781,11995,12086,12578,12271,13473,12485,11201,11891,11487,12091,12123,12123,11505,11909,12367,12839,12335,11447,12668,12100,11952,11768,12058,11601,11285,10893,11767,12358,10762,11911,12316,12241,11161,11244,11492,11109,11526,12167,10627,10340,12238,11356,11057,10927,11067,10964,11914,11853,11123,11448,11796,13486,12428,11773,11542,12007,12193,11696,12232,12135,10939,10711,11229
5.48218,14282,13927,14553,14454,13003,12809,12228,14155,12150,13760,13767,11918,13630,11731,12362,12235,10466,11698,13561,11987,11617,11804,11764,12353,11354,11507,11917,11678,12943,11902,10673,11106,11069,11607,11567,11639,11204,11186,11806,11950,11832,10845,12148,11460,11615,11260,11505,10943,10767,10534,11270,11812,10405,11348,11628,11556,10601,10693,10912,10821,10959,11841,10523,10037,12290,11158,11006,10804,10981,10590,11730,11463,10901,11183,11587,12794,12109,11222,11097,11720,11719,11029,11765,11661,10173,10319,10715
6.102728,13574,13640,14186,13909,12285,12340,11774,13779,11765,13089,13318,11153,12820,10951,11410,11508,9629,10944,12537,11584,10774,11235,10945,11327,10692,10750,11302,10937,11885,11299,10026,10438,10474,11053,10933,10748,10260,10716,11115,11493,10986,10636,11392,10711,10923,10677,11136,10304,10242,9956,10729,11171,9751,10551,11157,11080,9849,10017,10189,10019,10177,11342,9869,9461,11567,10720,10215,10401,10513,10213,11196,11177,10535,10811,10973,11975,11322,10990,10007,10840,10887,10539,11303,10822,9727,9777,10226
6.72327,11652,12139,12204,12320,10804,10790,10452,11939,10599,11744,11607,10267,11579,10380,10630,10390,9005,9892,11688,10760,10030,10212,10145,10414,9954,9877,10429,10082,11168,10440,9384,9942,9566,10307,10200,10087,9624,10053,10287,10688,10218,9630,10475,10097,10122,9990,10419,9495,9521,9241,10117,10624,9042,9989,10508,10117,9470,9456,9538,9360,9513,10417,9088,9027,11050,10162,9833,9622,9451,9548,10723,10466,9438,10034,10424,11502,10798,10117,9140,10030,10306,9569,10269,9828,8731,9032,9248
7.34382,10788,11243,11062,11382,9713,9903,9620,11237,9799,10650,10726,9521,11103,9494,9858,9600,8194,9321,10958,9779,9326,9701,9480,9818,8877,8851,9569,9221,10164,9802,8568,9091,8912,9367,9336,9375,8886,9018,9482,9917,9469,8881,9758,9387,9427,9207,9625,8841,8804,8719,9589,9558,8288,9228,9770,9651,8543,8496,8703,8770,8820,9821,8319,8153,10848,9210,8886,9012,9009,8795,10102,9965,8963,9216,9758,10813,10148,9387,8743,9135,9335,8736,9459,9159,8117,8303,8649
7.96436,10625,10674,10896,11085,9441,9664,9370,10788,9456,10446,10370,8877,10096,8555,9238,9051,7595,8384,10325,9093,8754,8851,8807,8700,8353,8297,8621,8596,9613,9364,7767,8370,8380,8815,8504,8757,8322,8364,8870,9136,9136,8330,9312,8602,8716,8489,9139,8180,8010,8245,8608,9092,7799,8518,9091,8635,8006,8227,8158,8030,8112,9136,7839,7873,11207,8519,8342,8543,8217,8105,9452,9041,8472,8589,8794,10401,9538,8706,7854,8424,8787,8033,8665,8409,7528,7676,8242
8.58491,12578,12668,12751,12774,11454,11613,10725,12704,11123,12461,12393,8513,9678,8259,8889,8072,7216,7798,10039,8758,8762,8778,8361,8190,8022,7602,7847,8440,9451,9061,7280,8011,8092,8227,8190,8290,7660,7911,8372,9301,8993,7869,9102,8475,8308,7832,8490,7944,7593,7938,8056,8484,7467,8024,8795,8225,7641,7540,7687,7740,7549,9302,7281,7175,13247,8034,7705,7985,7701,7740,9965,8971,7779,8157,8973,10800,9548,8174,7351,8077,8084,7543,8246,7897,7059,6970,7634
9.205456,8144,8264,8130,8514,7482,7416,7323,8450,7095,7940,7932,7995,8651,7557,7964,7753,6775,7121,8935,8074,7598,7891,7560,7609,7464,7315,7438,7505,8312,8081,6823,7364,7333,7621,7773,7614,7308,7510,7667,8098,8052,7399,8214,7514,7505,7271,8024,7375,7354,7364,7521,7872,6950,7583,7928,7647,7291,7216,7221,7505,7083,8355,6969,6728,9489,7523,7379,7427,7094,7050,8512,8054,7160,7611,8019,9460,8500,7516,6882,7597,7642,6923,7580,7247,6645,6946,7092
9.826,7358,7385,7343,7456,6654,6510,6431,7330,6392,6981,6837,7284,7986,7115,7608,7451,6479,6924,7720,7580,7013,7058,7216,7186,7125,7137,7185,7081,7620,7472,6565,7005,7147,7499,7462,7358,6979,7346,7514,7319,7499,7013,7451,7120,7216,7039,7436,6963,6992,7123,7154,7557,6827,7301,7452,7212,6840,7030,6995,6904,7036,7620,6707,6435,8093,7034,7045,7061,6939,6565,7898,7549,6857,7092,7576,8134,7715,7222,6610,7265,7355,6759,7348,7148,6632,6614,6868
10.4465,6976,6891,7053,7117,6383,6439,6271,7112,6198,6752,6722,7117,7680,6780,7478,7216,6246,6755,7349,7185,6777,6844,7003,6991,6959,6977,6959,6936,7522,7203,6283,6799,6707,6964,6903,6997,6674,6883,7183,7194,7081,7012,7205,6741,6990,6779,7159,6932,6913,6888,6895,7150,6669,7159,7005,6993,6838,6779,6796,6701,6980,7253,6454,6439,7642,6986,6538,6755,6635,6471,7678,7276,6584,6829,7303,7561,7247,7023,6711,7078,7021,6779,7175,6806,6545,6618,6831
11.0671,6951,6893,6811,7036,6609,6432,6431,6966,6278,6761,6561,7094,7480,6724,7065,6968,6377,6578,7233,7026,6622,6791,6934,6600,6852,6759,6835,6709,7238,7002,6394,6776,6600,6855,6855,7155,6703,6948,6929,6985,7047,6697,6856,6733,6772,6678,6868,6653,6808,6966,6798,7047,6736,6814,7001,7047,6641,6640,6758,6743,6750,7072,6389,6361,7388,6774,6593,6776,6520,6270,7448,7174,6627,6795,7200,7362,7223,6761,6689,6846,7111,6640,7117,6750,6491,6558,6740
11.6876,7545,7486,7425,7648,7248,6904,6810,7565,6675,7129,6887,6808,7273,6744,6749,6978,6351,6568,6823,7072,6433,6503,6699,6766,6707,6988,6828,6772,7178,6982,6581,6808,6796,6862,6810,6936,6579,7005,6946,6893,6758,6813,6638,6654,6746,6761,6858,6481,6816,6834,6894,7153,6650,6815,6735,7020,6585,6508,6685,6810,6700,6996,6472,6165,7382,6745,6937,6647,6414,6179,7263,7075,6471,6635,6981,7325,7199,6846,6660,7065,6840,6791,6921,6792,6426,6473,6890
12.3082,14648,13789,14916,14804,15170,15156,13257,13796,12502,14686,12990,6774,7236,6412,6676,6777,6221,6282,6937,6788,6501,6556,6523,6584,6542,6650,6712,6626,7063,6750,6336,6569,6440,6828,6481,6730,6330,6681,6850,6723,6712,6596,6720,6632,6347,6563,6562,6493,6541,6600,6612,6769,6421,6556,6799,6774,6531,6366,6543,6514,6626,6875,6295,6261,6980,6496,6450,6431,6252,6147,7102,6891,6253,6623,6961,7132,6880,6684,6678,6971,6828,6794,6953,6649,6537,6371,6750
12.9287,6870,7081,6983,7083,6938,6642,6559,7143,6284,6777,6565,6594,7056,6306,6764,6503,6086,6144,6789,6641,6484,6411,6358,6330,6498,6603,6560,6615,6914,6466,6103,6422,6326,6589,6410,6855,6161,6658,6711,6671,6681,6423,6521,6279,6456,6369,6623,6386,6602,6497,6459,6701,6253,6486,6578,6593,6339,6449,6396,6502,6401,6623,6325,6027,6956,6310,6288,6455,6161,6135,7171,6708,6209,6545,6797,7067,6659,6523,6716,6777,6949,6702,6942,6732,6344,6414,6876
13.5493,6341,6413,6437,6551,6072,5980,6113,6471,5965,6214,6093,6471,6858,6367,6710,6538,6132,6063,6504,6584,6282,6338,6251,6360,6494,6505,6743,6340,6917,6510,6165,6292,6470,6531,6436,6491,6453,6644,6586,6514,6373,6395,6347,6311,6477,6465,6564,6281,6457,6602,6494,6472,6263,6464,6559,6641,6844,6397,6228,6275,6416,6637,6279,6177,7109,6282,6270,6300,6498,6018,7004,6684,6277,6479,6685,6776,6564,6467,7543,7175,8249,7099,7942,8048,7261,7406,8043
14.1698,6293,6111,6108,6276,6144,5933,5961,6357,5819,5985,5886,6225,6538,6235,6467,6321,5870,5883,6439,6235,6026,6217,6092,6014,6233,6192,6403,6409,6683,6522,6040,6189,6076,6469,6175,6377,5982,6298,6250,6073,6252,6209,6249,6138,6083,6073,6240,6046,6250,6465,6244,6339,5983,6311,6532,6294,6103,6184,6245,6115,6126,6512,6087,5754,6741,6153,6083,6177,5939,5687,6659,6671,5920,6327,6489,6711,6495,6267,6430,6561,6753,6595,6684,6434,6130,6223,6550
14.7904,5724,5755,5657,5809,5525,5474,5559,5879,5418,5639,5403,6186,6692,5929,6102,6185,5904,5753,6139,6304,6002,5906,5925,6026,6208,6103,6006,6062,6627,6345,5617,5939,5968,6066,6140,6269,5905,6305,6275,6326,6326,5981,6069,6078,5878,5944,6302,6036,6054,6011,6131,6162,5923,5979,6281,6199,6025,5925,6129,5900,5881,6313,5912,5886,6551,5992,5984,6086,5798,5551,6550,6418,5641,6042,6356,6479,6368,6091,6220,6334,6290,6232,6483,6208,6161,5961,6440
15.4109,5439,5567,5627,5780,5413,5097,5346,5652,5372,5390,5433,6089,6223,5837,6103,6020,5519,5576,6131,6054,5946,5778,5967,5800,5897,6079,6008,5985,6357,6224,5715,5866,5986,5978,6015,6066,5748,6063,5992,6101,5998,5957,6026,5849,5835,5856,5957,5815,5983,6019,5919,5958,5736,5914,5990,6036,5805,5907,5815,5809,5759,6222,5723,5669,6362,5744,5871,5804,5688,5441,6491,6086,5561,5878,6144,6242,6150,5988,6240,6137,6194,5959,6412,5899,5731,5895,6097
16.0315,5519,5446,5377,5593,5312,5136,5220,5606,5156,5221,5187,5851,6186,5640,5769,5936,5473,5413,6146,5880,5750,5605,5726,5591,5856,5966,5854,5908,6234,5991,5629,5745,5715,5914,5885,5946,5559,6020,5736,5907,5866,5883,5710,5769,5718,5715,5977,5654,5819,5775,5904,5886,5850,5923,5940,6082,5709,5727,5755,5776,5776,6046,5749,5619,6299,5803,5641,5735,5644,5224,6261,6105,5619,5769,6205,6240,6062,5726,6650,6087,5985,5850,6510,5788,5591,5570,6074
16.652,5435,5334,5468,5582,5271,5029,5338,5269,5087,5068,5209,5903,5933,5491,5820,5653,5386,5300,5831,5825,5632,5653,5584,5413,5812,5707,5840,5744,6130,5886,5458,5738,5658,5681,5644,5866,5573,5855,5827,5800,5764,5765,5698,5536,5639,5726,5727,5612,5741,5791,5624,5695,5586,5685,5817,5782,5541,5427,5707,5576,5701,5970,5606,5345,6074,5678,5493,5493,5294,5198,6206,5994,5419,5552,5954,6133,5894,5785,5575,5866,5581,5773,5714,5515,5438,5280,5881
17.2725,5092,5233,5214,5363,5034,4854,5088,5311,4895,4974,5033,5872,6006,5679,5769,5652,5339,5201,5926,5703,5556,5658,5471,5313,5549,5716,5536,5740,6153,5960,5338,5570,5519,5547,5631,5649,5337,5580,5749,5781,5855,5499,5758,5594,5596,5548,5636,5384,5543,5795,5649,5820,5484,5704,5856,5795,5452,5368,5564,5580,5646,5977,5477,5348,6169,5506,5450,5455,5270,5019,6336,6051,5323,5532,5918,6190,5935,5668,5589,5520,5571,5451,5542,5317,5271,5324,5685
17.8931,5327,5420,5570,5562,5439,5481,5293,5513,5416,5285,5330,5886,6025,5416,5844,5641,5191,5039,5795,5571,5826,5786,5437,5260,5678,5505,5477,5626,6258,5884,5286,5474,5534,5488,5507,5593,5210,5523,5517,5756,5881,5664,5700,5431,5434,5469,5437,5452,5546,5703,5656,5575,5233,5601,5776,5688,5317,5340,5434,5399,5568,6044,5293,5226,6147,5414,5319,5375,5177,4998,6035,5928,5188,5521,5849,6191,5937,5474,5374,5359,5345,5330,5530,5281,5228,5299,5718
18.51364,4828,5025,4945,5028,4885,4703,4801,5012,4688,4846,4752,5744,5800,5302,5601,5407,5265,4992,5649,5628,5574,5543,5462,5030,5580,5577,5454,5541,6002,5870,5304,5436,5500,5460,5426,5384,5169,5578,5374,5490,5714,5579,5681,5378,5314,5334,5639,5278,5537,5511,5544,5723,5236,5374,5798,5661,5170,5404,5467,5531,5524,5678,5405,5262,5670,5254,5344,5514,5120,4878,5890,5875,5079,5270,5680,6100,5874,5508,5446,5413,5138,5241,5289,5150,4980,5132,5686
19.1342,4795,4770,4816,4836,4577,4553,4679,5076,4632,4695,4745,5694,6018,5171,5604,5388,5305,5280,5612,5481,5494,5567,5358,5034,5555,5612,5346,5598,5995,5693,5126,5481,5405,5393,5435,5571,5040,5536,5409,5605,5603,5471,5612,5224,5375,5381,5376,5333,5479,5527,5627,5496,5250,5355,5705,5689,5232,5230,5530,5508,5603,5794,5328,5387,5770,5420,5214,5311,5106,4853,5963,5876,5127,5212,5722,6101,5847,5437,5100,5225,5155,5219,5342,5023,4989,5088,5595
19.7547,7403,7549,7079,7516,6817,6943,7225,7610,6968,7146,7270,8404,9258,7447,8482,6549,6224,5922,9032,7039,9209,9340,7058,6532,7701,6819,6283,8097,9486,8542,6308,7631,7214,6721,6734,7300,5836,6839,7419,8081,8381,6506,9044,7574,6842,6542,6781,6941,6285,6456,6175,7302,5863,6234,8380,6334,5189,6508,6379,6708,6429,8128,6179,5605,9419,6685,6442,6295,5125,5997,9372,7509,5213,6702,8306,9818,8597,7394,4885,5339,5038,5264,5104,4931,4844,4807,5354
20.3753,6958,7119,6989,7205,7013,6937,6786,7208,6504,6737,6757,6002,6254,5349,6027,5445,5092,4980,6246,5616,6240,6144,5443,4945,5700,5598,5372,5810,6682,5964,5195,5586,5533,5488,5340,5751,5021,5448,5353,5777,5927,5585,6070,5682,5449,5453,5479,5362,5389,5415,5421,5808,5177,5386,5994,5737,5003,5227,5604,5372,5525,6136,5313,5259,5960,5459,5091,5217,4805,4503,6042,6013,4886,5208,5647,6539,6134,5597,4810,4936,4776,4911,4816,4850,4800,4742,5253
20.9958,6834,6758,6761,6827,6680,6485,6626,7106,6419,6428,6532,6543,6638,5966,6444,5987,5772,6995,6569,6278,6537,6274,8239,5594,6292,6180,6465,6276,6604,6297,6334,6063,5985,5869,5985,6256,5758,6095,6031,6155,6147,6195,6453,5991,5939,6038,6144,6083,6394,6208,6542,6317,5866,5897,6304,6423,5715,5968,6012,6226,5999,6819,6172,5999,7872,6129,5804,6127,6081,5337,7086,6403,5958,6093,6231,6795,6380,6137,5397,5835,5111,5715,5262,4860,4926,5194,5421
21.6164,6246,6092,6067,6317,6015,6052,6066,6211,5841,5977,5972,5717,5920,5229,5800,5250,5024,4943,5775,5385,5578,5595,5287,4808,5531,5307,5155,5565,6157,5749,5104,5411,5392,5203,5087,5418,4969,5222,5064,5850,5663,5305,5634,5362,5241,5152,5629,5358,5322,5362,5456,5520,5053,5245,5762,5608,5033,5012,5410,5317,5404,6073,5058,4989,5651,5146,5022,5180,4726,4433,5829,5774,4790,5153,5554,6205,5722,5497,4648,5171,4903,4964,4834,4710,4637,4785,5157
22.2369,5428,5244,5246,5563,5074,4895,5119,5255,5067,5014,5035,5741,6019,5564,5918,5561,5380,5410,5971,5605,5590,5767,5401,4816,5882,5738,5501,5846,6225,5878,5491,5596,5610,5627,5392,5819,5520,5507,5455,5849,5807,5481,5707,5548,5519,5578,5769,5378,5646,5825,5896,5813,5624,5685,6049,5726,5262,5569,5721,5384,5954,6297,5581,5468,5947,5473,5306,5441,4750,4474,6371,5975,4693,5423,5819,6341,5770,5651,4715,5120,4770,5252,4857,4811,4812,4877,5480
22.8575,5510,5483,5467,5664,5345,5103,5264,5504,5067,5208,5169,5987,6229,5681,6095,5684,5461,5455,6002,5947,6024,5880,5803,5300,6079,5897,5584,6003,6605,6250,5448,5945,5756,5590,5732,5807,5333,5877,5709,6041,5916,5781,5975,5725,5699,5524,5821,5795,5634,5717,5819,6127,5251,5621,6261,6010,5244,5694,5799,5777,5808,6493,5715,5703,6164,5636,5582,5749,5145,4840,6401,6244,5134,5537,6070,6463,6147,5887,4623,4815,4803,5028,4795,4678,4748,4878,5245
23.478,5136,4944,5033,5051,4904,4793,4939,5047,4689,4767,4835,6350,6625,6439,6269,6591,6359,6075,6352,6955,6427,6263,5864,5736,6699,7038,6230,6397,6921,6485,6715,6101,6739,6414,6570,6518,5757,6585,6718,6528,6288,6809,6486,6069,6437,6315,6703,6278,6866,6595,6400,7665,5597,5882,6356,6590,6247,6266,7101,7013,6708,6694,6172,6314,8788,6658,6461,6620,5733,4947,7325,6497,5588,5997,7172,6898,6504,6129,6013,6199,7864,5904,6671,6947,5939,6125,7213
24.0986,5374,5316,5400,5601,5342,5084,5321,5504,5207,5133,5022,5876,6024,5746,5804,6376,6543,6335,5694,6330,5594,5486,5624,5394,6343,7098,6825,5784,6235,5911,6795,5625,6315,6467,6383,6332,6375,6361,6330,5630,5886,6892,5623,5711,6011,6566,6401,5874,7031,6866,6939,6784,7003,6800,6097,6647,5974,6485,6621,6911,6824,6217,6964,6579,6236,6337,6214,6628,4941,4790,6249,6405,4943,5916,6190,6271,5956,5919,4864,6044,4643,6021,4968,4679,4864,5004,5842
24.7191,6785,6767,7045,7036,6779,6630,6587,6945,6176,6650,6028,5489,5975,5192,5574,5192,4809,4670,5681,5387,5692,5580,5277,4642,5543,5361,4957,5702,6100,5673,5082,5542,5387,5010,4930,5471,4818,5245,4916,5437,5692,5097,5391,5615,5126,5036,5295,5445,5180,5262,5138,5348,4857,5104,5730,5311,5069,4881,5272,5224,5134,6013,5073,5004,5886,4889,4904,5104,4566,4455,6037,5763,4542,4859,5518,6136,5703,5601,5475,4797,5286,4825,5216,5712,5593,5521,6301
25.3396,6784,6834,7180,7028,7214,6749,6702,6896,6385,6745,6168,7598,7287,6642,7059,5890,5302,5193,7222,6435,7697,7752,6450,4986,7268,6024,5222,7141,7829,7157,5983,6891,6572,5546,5482,6488,4751,5338,5469,7069,7258,6422,7197,6677,6361,5919,6479,6896,6021,6124,5901,6624,5452,5903,7377,6094,4767,5690,5945,6283,6669,7790,6077,5022,7143,5629,5572,5555,4769,5100,7164,6369,4794,5341,6618,7380,6723,6570,4573,4566,4644,4561,4600,4551,4424,4350,5049
25.9602,5000,4923,4998,5162,4979,4820,4949,5096,4718,4912,4598,5656,6057,5518,5850,5290,5120,5070,5945,5372,5770,5806,5390,4791,5910,5471,5442,5967,6324,5876,5300,5831,5654,5254,5097,5622,5023,5218,5070,5931,5840,5472,5559,5761,5341,5345,5739,5727,5383,5647,5467,5563,5156,5346,6071,5744,5384,5053,5456,5335,5548,6367,5476,5235,6663,5202,5207,5257,4760,4475,6446,5814,4785,5301,5697,6401,6318,5845,6021,5295,6078,5259,6184,4668,4691,4564,5237
26.5807,17591,20243,18220,19022,11753,12694,17077,19895,13102,16939,16299,18006,28818,26964,24343,23298,20798,20543,25529,32785,16971,19090,15421,29080,28880,25008,22549,20953,24486,25898,17771,20255,27153,33304,33414,29622,30856,30669,30489,31439,22592,27078,18577,26585,39140,35559,40521,28002,23512,26947,33024,30009,17396,30890,25487,38295,23373,22844,29106,23065,22450,31426,22616,26073,34046,31695,31790,32806,18786,16172,60312,33955,21034,39944,36634,21232,25333,20508,12324,23414,12466,17995,13850,10805,12285,13168,10894
27.2013,5006,4899,4887,5154,4961,4714,4875,4883,4747,4889,4534,5986,6010,5444,5886,5636,5790,5440,5921,5525,5923,5846,5465,5158,5674,5890,5918,5746,6337,5903,5466,5824,5723,5488,5689,5738,5435,5840,5772,5829,5917,5647,5743,5739,5523,5369,5673,5528,5636,5710,5567,5923,5224,5493,6200,5877,5838,5550,5794,5678,5675,6384,5803,5675,7805,5596,5454,5735,5486,4438,6344,5870,5688,5578,6003,6552,6121,5859,5262,5911,6383,5637,5507,5372,5051,5247,5850
27.8218,5649,5566,5752,5656,5584,5437,5563,5632,5268,5352,5201,5845,5871,5901,5908,7787,9499,8935,5827,6422,5883,5803,5567,8070,7905,8303,10988,5657,6185,6000,7847,5746,6832,10231,9053,7548,14370,8886,8829,5787,5750,7147,5604,5743,6548,7897,8133,5941,7505,8558,8693,6713,10496,9829,5973,7244,15961,8681,7983,6895,8167,6225,9004,10614,6971,7384,7166,8203,5910,5143,7377,6156,5838,10702,7434,6689,6238,5663,14753,15075,14868,14654,15345,17602,15875,16195,18325
28.4424,4612,4606,4556,4669,4557,4426,4606,4665,4352,4483,4493,5365,5577,5111,5388,5217,5283,5047,5448,5189,5339,5526,5116,4984,5417,5176,5679,5541,5833,5606,5069,5322,5334,5310,5293,5367,5322,5361,5137,5625,5492,5040,5314,5390,5008,5064,5231,5241,5069,5128,5143,5261,5282,5603,5752,5262,5860,5000,5212,4965,5253,5762,5339,5488,5595,4990,4849,5038,4736,4422,5738,5652,4719,5203,5651,6062,5732,5504,6754,5497,7367,5569,6854,8344,7954,8000,9546
29.0629,4855,4746,4705,4960,4574,4322,4616,4798,4457,4531,4476,5842,6113,5974,5954,5975,5524,4964,5837,6394,5657,5447,5567,6274,6203,6377,6247,6035,6253,5916,5878,5972,6236,6235,6589,6647,6487,6706,6030,5934,6208,6317,5631,6086,6883,6917,6985,6801,6465,6701,6932,6348,7771,7509,6111,6016,6761,6527,5558,6529,6126,6033,6098,5834,5838,6262,6334,6121,6502,7628,6309,7053,6235,6553,6982,6218,6256,6564,4809,6145,4413,5836,5136,3997,4135,4216,4578
29.6835,5058,4928,4916,5120,5232,4950,4930,4941,5571,4959,5061,6833,6588,7337,6584,6412,6231,6244,7873,6136,7984,7930,8587,7015,7801,6324,6267,9517,8729,9007,6651,8090,6958,6440,6634,6436,5676,6247,5709,7662,6541,6320,8589,8414,6682,5957,6158,6720,6020,6373,5807,6074,5925,5973,6868,5919,6454,5745,5620,5587,5908,7700,6227,5481,7852,6575,6366,6175,9737,8620,6558,6967,10058,6466,6401,7405,7061,6610,6411,5639,8042,5509,7110,7575,6217,6331,5969
30.304,3998,4017,4092,4189,4068,3887,4045,4088,4013,3811,3850,5008,5360,5169,5171,5532,5261,4956,4956,5126,5154,5131,5155,5647,5270,5247,5843,5387,5536,5393,4967,5132,5138,5592,5449,5400,5883,5807,5366,5459,5152,5248,4825,5392,5238,4984,5351,5401,5087,5177,5239,5174,5384,5519,5364,5452,7039,5407,5207,5205,5245,5383,5304,5725,5874,5427,5190,5259,5849,5004,5532,5422,6011,5313,5785,5499,5366,5362,10211,6578,10771,6453,10487,10956,10423,10243,9699
30.9246,5404,6244,5709,5944,5137,5622,5624,5699,5777,5241,5199,5084,5321,5306,5190,5820,5805,5363,4998,5614,5189,4890,5121,6490,5415,6233,6408,5338,5606,5323,5501,5070,5344,6090,6252,5755,6195,6478,6747,5230,5206,6053,4822,5280,5774,5648,5760,5515,5748,5736,5718,5889,6004,5862,5450,5919,6509,5982,5764,6162,5788,5370,5789,5859,5984,5936,5852,5924,6576,5480,6135,5767,6498,5587,6238,5570,5550,5467,7093,6512,5831,6568,6727,5549,5888,5692,5350
31.5451,4302,4231,4255,4391,4278,4235,4126,4254,4199,4082,4085,4951,4923,5356,4919,6487,6604,6317,4890,6513,4948,5005,5218,5870,5518,7510,7482,5150,5317,5204,8346,5059,5993,6172,7236,5818,5964,6849,6438,5143,5016,8012,4698,5246,5924,7324,6435,5802,7866,7413,7196,6594,7474,6628,5099,7240,5840,6591,6549,8379,6784,4997,7270,6812,5085,6764,6696,6877,5380,5496,5341,5693,5345,5466,6140,5660,5394,5578,5859,6003,5726,6342,5928,6379,5731,5681,6716
32.1656,3780,3815,3834,3932,3885,3760,3890,3953,3759,3607,3533,4459,4575,4180,4350,4275,4259,3849,4228,4422,4299,4320,4201,3949,4418,4501,4405,4512,4934,4753,4248,4507,4478,4252,4368,4436,3995,4555,4260,4484,4473,4395,4136,4385,4418,4212,4555,4489,4255,4456,4293,4438,4324,4480,4831,4420,4486,4164,4296,4324,4518,4721,4377,4227,4778,4243,4224,4150,4156,3831,4861,4578,4041,4338,4722,4775,4779,4559,3843,3988,3668,4047,3979,3525,3559,3587,3920
32.7862,3600,3569,3622,3577,3485,3386,3570,3600,3555,3314,3402,4260,4422,4210,4196,4153,4060,3761,4190,4504,4115,4140,4187,3944,4433,4637,4393,4361,4579,4478,4111,4369,4404,4296,4388,4515,4191,4423,4277,4250,4506,4432,4047,4232,4404,4325,4437,4503,4434,4486,4481,4524,4422,4448,4704,4338,4289,4264,4117,4536,4459,4594,4339,4291,4662,4222,4141,4277,3990,3958,4800,4657,3985,4363,4757,4723,4609,4631,3656,4064,3497,4134,3539,3383,3254,3337,3804
33.4067,3899,3842,3838,3959,3814,3755,3923,3936,3887,3518,3623,4322,4485,4069,4299,4011,4680,4066,4151,4899,4205,4154,3990,3674,4079,4936,4963,4254,4763,4367,4086,4280,4246,4156,4036,4223,4335,4584,4434,4098,5063,4744,4131,4181,4031,4161,4281,4289,4922,4496,4918,4926,3875,4133,5082,5070,4031,3853,4431,4684,4234,4787,4201,4513,4982,3887,3904,4622,3712,3558,4632,5079,3707,4038,4505,4590,4475,4239,3858,3931,3841,4139,3873,3448,3459,3376,3882
34.02728,3506,3492,3480,3548,3475,3454,3492,3590,3476,3341,3288,4265,4530,4005,4326,3947,3760,3455,4100,4213,4042,4162,3981,3625,4271,4077,3944,4205,4628,4395,3838,4272,4173,3882,3762,4373,3646,3986,4042,4393,4304,4021,4076,4175,3941,3835,4110,4151,4066,4059,3972,4155,3821,4053,4656,3951,3694,3703,4038,4131,3956,4376,3995,3766,5334,3948,3898,3876,3679,3719,4892,4543,3590,4224,4623,4849,4580,4397,3457,3565,3394,3653,3490,3169,3367,3227,3614
34.6478,4808,4815,4775,4984,4809,4753,4873,4942,4664,4578,4693,4743,5230,4297,4708,4512,4488,4336,4751,4521,5080,4932,4447,4567,4590,4584,4813,4663,5199,4953,4133,4581,4286,4719,4814,4667,4285,5074,5305,4670,5031,4434,4732,4564,4294,4309,4477,4423,4209,4412,4166,4678,4222,4082,4951,4405,3979,4462,4317,4409,4576,4869,4299,4164,6396,4615,4462,4408,4038,4033,5649,4688,3983,4452,5173,5577,5242,4523,3661,3858,3634,3832,3588,3532,3332,3350,3612
35.2684,5042,5064,5196,5146,5193,4951,5020,5176,5004,4915,4958,4278,4660,4457,4302,5244,5067,4594,4241,4832,4223,4317,4307,5716,4539,5222,5535,4259,4580,4341,4669,4062,4516,5320,5145,4968,5658,5543,5455,4275,4381,5155,4104,4183,4700,4828,4809,4615,4955,5009,4834,4902,5040,4825,4586,4988,6404,5207,4990,5137,4870,4397,4897,4915,5060,5025,4812,4856,6471,4848,4743,4815,6353,4488,4957,4845,4539,4608,6960,5908,6775,6053,7089,5722,5349,5526,5093
35.8889,5786,5747,5526,5933,5618,5649,5712,5987,5592,5509,5398,4904,5073,5083,4899,5845,5471,4976,4810,5494,4841,4867,5079,5545,4902,5586,6296,4848,5130,5070,5008,4747,5038,5564,5143,5395,5492,5866,5599,5249,5147,5437,4934,4770,5179,5216,4962,4963,5364,5166,5170,5498,5231,5393,5034,5310,5546,5294,5089,5497,5267,4871,5327,5157,5123,5101,5065,5109,6358,5201,5244,5870,6317,5039,5349,5714,5193,5195,6426,5766,5355,5977,6283,5928,5472,5663,6534
36.5095,6161,6935,6418,6620,5289,5487,6465,6577,5654,6186,6035,5922,7856,6781,6909,6426,6120,5532,7570,7775,5397,6218,5002,7639,7107,7007,6034,6102,7385,7007,5876,5890,6820,6804,6937,6956,6886,7652,7388,7343,6670,6601,5855,6498,7116,7609,6953,6483,6354,7183,6764,7152,6381,6929,6736,8072,6290,6611,6787,6162,6451,7515,6558,7064,7434,7454,7132,7000,6013,5023,9986,7049,6215,8429,7336,6874,7323,6292,4452,6014,4090,5945,4750,3648,3882,3963,4254
37.13,3771,3729,3625,3691,3726,3633,3860,3687,3663,3470,3310,3811,4181,3727,3869,4183,4144,3889,3852,4082,3936,3983,3620,3646,3997,4292,4182,3741,4371,3957,4240,3805,3890,4240,4209,4075,3877,4299,3995,3804,4052,4384,3752,3654,3808,4169,4291,3774,4226,4526,4377,4330,4270,4399,4083,4460,4069,4297,4348,4207,4390,4200,4387,4411,4882,4261,4031,4179,3618,3434,4652,4406,3574,4155,4475,4329,4272,4094,3563,3825,3338,3850,3459,2961,2920,2934,3575
37.7506,4374,4394,4415,4574,4355,4439,4434,4433,4391,4294,4072,3740,4109,3504,3681,3890,3555,3355,3768,3719,3845,3796,3641,3333,3730,3892,3809,3639,4022,3781,3890,3683,3770,3826,3678,3861,3534,3833,3716,3601,3930,3882,3656,3647,3690,3877,3874,3777,3897,4033,3813,3936,3765,3856,3978,4001,3540,3749,3717,3675,3926,3965,3856,3664,4214,3757,3665,3739,3499,3216,4193,4039,3432,3778,4078,4263,4093,3816,3399,3442,3244,3614,3337,3031,3082,2951,3538
38.3711,4731,4925,4678,4866,4696,4564,4813,4734,4415,4620,4394,3482,3814,3295,3578,3521,3546,3026,3467,3664,3653,3596,3390,3234,3486,3600,3474,3522,3817,3619,3439,3428,3467,3545,3530,3590,3317,3621,3611,3472,3652,3557,3354,3449,3416,3457,3653,3498,3588,3598,3495,3675,3490,3531,3749,3606,3455,3367,3516,3570,3659,3676,3441,3452,3903,3470,3498,3415,3322,3127,4042,3740,3377,3459,3841,3846,3705,3578,3314,3382,3128,3366,3168,2971,2867,2977,3436
38.9916,3863,3933,3911,4084,3899,3735,4056,4085,3825,3816,3691,3583,3754,3472,3602,3645,3626,3158,3548,3644,3593,3540,3474,3394,3570,3797,3779,3531,3935,3611,3506,3477,3622,3717,3686,3717,3757,3894,3723,3571,3614,3714,3551,3497,3557,3598,3776,3495,3602,3805,3575,3628,3558,3767,3664,3810,3867,3557,3510,3584,3766,3640,3652,3677,3899,3564,3557,3646,3575,3345,4129,3987,3582,3696,3966,4033,3897,3675,3667,3654,4180,3770,3889,3517,3527,3636,3788
39.6122,5376,5326,5105,5312,6329,6059,5284,5051,6194,5556,5565,6547,5420,5346,5504,5256,5415,5858,6109,4904,7545,6776,7546,5163,6054,5509,5631,6280,5891,5449,5856,5899,5310,4830,4772,5340,4073,4584,4448,5150,5572,4778,6430,5005,4622,4616,4544,4959,4897,4941,4523,4522,5054,4450,4716,4829,4064,4764,4679,4722,4844,4804,4931,4819,5168,4783,4549,4420,4776,4942,4929,4530,4690,4478,4782,5574,5358,5213,3748,3971,3370,4113,3745,3470,3350,3542,4159
40.2327,3866,3961,4005,4327,3768,3744,4057,4141,3887,3800,3691,4035,4661,4220,4100,4158,4089,3632,4253,4288,4131,4269,3790,4133,4423,4305,4070,4121,4658,4461,3784,4058,4378,4492,4295,4551,4282,4518,4584,4584,4226,4367,3924,4224,4434,4304,4615,4281,4174,4263,4340,4444,3878,4180,4487,4765,3892,4153,4212,4151,4217,4657,4233,4302,5011,4300,4321,4628,3841,3507,5909,4660,3820,4851,4780,4554,4469,4327,3619,3966,3789,3950,3671,3187,3240,3361,3780
40.8533,3452,3496,3426,3668,3619,3411,3636,3648,3547,3215,3174,3612,3917,3362,3546,3620,3778,3336,3448,3653,3668,3604,3459,3433,3491,3963,4029,3446,3957,3743,3561,3583,3564,3740,3740,3617,3824,3918,3962,3476,4000,3912,3480,3448,3441,3479,3736,3625,3762,3910,3879,3865,3625,3677,3952,4032,3808,3415,3715,3895,3771,3698,3654,3707,4502,3586,3565,3797,3624,3169,4023,3943,3597,3528,3895,3904,3910,3612,3946,3620,3883,3858,3846,3496,3324,3345,3967
41.4738,3291,3289,3242,3411,3283,3300,3398,3421,3385,3087,3006,3404,3573,3347,3479,3583,3402,3150,3402,3503,3619,3612,3330,3272,3399,3679,3602,3395,3752,3552,3474,3314,3398,3620,3564,3516,3347,3740,3606,3423,3511,3534,3316,3278,3323,3371,3451,3397,3644,3469,3352,3700,3400,3482,3537,3519,3387,3301,3518,3604,3710,3649,3575,3496,4281,3478,3343,3533,3162,3029,3964,3687,3184,3532,3780,4077,3629,3571,3328,3324,3321,3420,3211,2899,2843,2829,3491
42.0944,3328,3325,3399,3414,3448,3349,3396,3440,3462,3200,3205,3454,3705,3335,3505,3730,3974,3584,3407,3623,3628,3572,3368,3661,3532,3919,4025,3527,3723,3631,3551,3364,3475,4087,3904,3701,4079,4269,4071,3501,3578,3701,3312,3326,3437,3704,3772,3537,3746,3777,3749,3709,3692,3834,3723,3740,4229,3649,3681,3618,3718,3567,3604,3906,4100,3657,3689,3769,3414,3082,4049,3868,3391,3763,4042,3949,3735,3608,4572,4141,4662,4160,4672,4457,4080,4369,4968
42.7149,3294,3269,3201,3377,3327,3220,3436,3337,3347,3105,3127,3573,3738,3383,3501,3723,3659,3297,3398,3647,3587,3518,3605,3651,3583,3868,3866,3512,3771,3707,3622,3419,3500,3748,3725,3732,3590,3942,3826,3377,3673,3793,3403,3286,3551,3534,3597,3557,3856,3767,3688,3843,3502,3577,3639,3719,3764,3497,3599,3826,3789,3721,3800,3723,4131,3554,3561,3783,3788,3408,3977,3898,3841,3520,3973,3959,3793,3708,3756,3582,3637,3844,3770,3289,3330,3189,3594
43.3355,6269,6148,6418,6151,7726,7844,6728,5734,8004,6602,7069,6004,5702,5504,5952,5337,4721,4578,6400,4848,6500,6602,5986,5238,5440,4735,4476,6818,6295,5713,4916,5792,4803,4601,4224,5067,3931,4245,4602,5449,5739,4499,7112,5315,4487,4287,4475,4817,4270,4344,4149,4282,4413,4458,4972,4076,3648,4516,4566,3963,4689,4522,3866,3677,4559,4160,4360,4003,4563,5114,4285,4483,4501,4013,4525,5982,5425,5314,3351,3422,3129,3425,3223,3061,2933,2993,3676
43.956,2825,2906,2992,3031,3119,2960,3177,3003,3046,2812,2755,3294,3518,3156,3233,3284,3210,2902,3246,3337,3460,3433,3407,3105,3269,3467,3394,3442,3686,3514,3296,3267,3341,3281,3338,3392,3117,3421,3357,3271,3411,3377,3172,3337,3316,3136,3372,3368,3390,3406,3285,3500,3168,3348,3592,3388,3251,3154,3195,3433,3328,3545,3366,3332,3868,3304,3193,3326,3154,2908,3783,3660,3144,3380,3579,3776,3693,3450,2973,3084,2922,3297,2953,2778,2586,2564,3176
44.5766,2943,2836,2879,2980,3047,2874,3048,2978,2975,2779,2725,3261,3468,3423,3327,3875,4018,3629,3233,3633,3347,3236,3339,3798,3536,4236,4253,3285,3581,3463,3837,3232,3584,4058,3928,3931,4228,4357,4070,3431,3396,4108,3184,3189,3742,3889,3763,3594,4162,3924,4000,3757,4234,3999,3528,4081,4344,4061,3875,4202,3944,3460,3858,4186,4040,3822,3762,3813,3882,3410,3865,3927,3848,3645,4102,3694,3670,3721,4347,4250,4168,4383,4256,3343,3523,3480,3759
45.1971,3477,3296,3427,3441,3578,3404,3586,3429,3250,3169,3196,3384,3462,3277,3486,3435,3358,3187,3348,3352,3702,3597,3356,3097,3418,3487,3541,3519,3820,3546,3474,3332,3446,3467,3507,3530,3256,3516,3403,3449,3523,3582,3227,3272,3360,3316,3545,3401,3454,3587,3449,3502,3386,3476,3557,3599,3352,3411,3464,3336,3629,3688,3582,3512,4185,3388,3408,3416,3232,2985,4140,3755,3277,3300,3817,3856,3741,3576,3445,3293,3124,3489,3423,3072,3051,3057,3519
45.8176,4470,4177,4387,4563,5154,4795,4675,4187,4584,4284,4075,5054,4880,4196,4512,4194,4019,4421,4531,3965,5462,5287,4541,3976,4404,4172,4364,4125,4492,4200,5135,4034,4055,4151,3961,5013,4125,4212,4184,3973,4524,4202,4675,3942,3890,4591,4169,4263,4151,4256,4012,3901,4042,4044,4112,4552,3812,3743,4212,4087,4372,4642,4624,4303,5287,4183,4211,4068,3957,3325,5270,3970,4043,4285,4589,4399,4695,4520,3791,4119,3581,4236,3845,3282,3409,3287,3723
46.4382,3153,3020,3014,3163,3209,2988,3251,3139,3092,2867,2806,3254,3425,3071,3153,3181,3094,2779,3174,3161,3325,3302,3266,2977,3162,3237,3273,3336,3540,3210,3127,3126,3190,3162,3142,3216,2968,3312,3011,3085,3359,3225,3138,3087,2995,3074,3159,3202,3125,3310,3096,3287,2961,3203,3424,3232,3077,3024,3017,3075,3215,3431,3243,3109,3610,3055,3050,3237,2921,2792,3677,3461,2927,3088,3505,3553,3612,3388,3067,3115,2982,3140,3108,2707,2657,2617,3163
47.0587,3591,3492,3577,3605,3653,3398,3638,3577,3518,3254,3348,3616,3906,3695,3721,3576,3763,3279,3549,3962,3618,3620,3519,4055,3586,3763,4020,3771,4023,3767,3696,3649,3732,3947,3843,3926,3834,4278,3824,3717,3793,4079,3659,3668,3863,3858,4017,3787,3932,3903,3926,3808,3880,4014,3723,3874,3924,3581,3867,3640,3767,3587,3697,3712,3984,3621,3733,3750,3617,3710,3958,4180,3571,3930,4119,4120,4046,3899,3998,3735,3724,3940,3926,3690,3659,3789,4429
47.6793,6047,6276,6141,5910,6590,6973,6403,5979,6797,6137,6524,4885,4701,4854,4694,4375,4047,4006,5616,4106,5869,5831,6074,4655,5365,5021,4103,6028,5924,5659,4746,5376,4690,4210,4215,4661,3255,3912,3556,5370,4898,3952,5843,5479,4296,3947,4121,4365,4203,3937,3903,3852,4291,4056,4571,3844,3340,4130,3657,3744,3737,4427,3914,3486,4281,3861,4015,3771,4175,4952,4186,4238,4173,3603,4263,5414,5107,4967,3036,3156,2978,3314,3002,2671,2597,2700,3060
48.2998,3208,3169,3165,3254,3253,3194,3394,3305,3365,3020,2929,3588,3701,3331,3616,3623,3468,3121,3569,3607,3591,3752,3481,3321,3467,3452,3705,3722,4145,3859,3509,3690,3522,3603,3473,3674,3353,3761,3608,3593,3845,3576,3563,3561,3476,3383,3664,3531,3515,3519,3366,3540,3504,3648,3614,3569,3496,3348,3432,3445,3568,3543,3553,3523,3881,3516,3471,3477,3745,3471,3803,3969,3603,3613,3945,3853,3992,3606,3600,3163,3403,3434,3476,3576,3359,3355,4107
48.9204,2997,2983,2892,3057,3094,3005,3110,2923,3119,2768,2811,3418,3455,3343,3269,3513,3543,3315,3426,3556,3582,3529,3616,3290,3577,3788,3652,3882,3950,3724,3617,3551,3379,3406,3655,3559,3357,3624,3451,3306,3425,3632,3604,3546,3265,3360,3405,3397,3452,3618,3575,3461,3458,3399,3493,3541,3467,3406,3337,3403,3357,3470,3509,3543,3840,3458,3412,3533,3557,3475,3616,3660,3549,3553,3762,3736,3743,3556,3346,3393,3086,3446,3245,2885,2738,2856,3282
49.54092,3021,2973,2916,3163,3080,3108,3228,3111,3172,2818,2721,3207,3439,2958,3126,3425,4018,3502,3108,3741,3235,3220,3250,3294,3459,3831,4298,3309,3683,3394,3708,3085,3294,3629,3725,3414,4348,4144,3916,3084,3594,3805,3187,3147,3237,3569,3641,3206,4013,3821,4089,3839,3619,3616,3644,3917,4133,3491,3546,3783,3699,3418,3808,4289,4053,3361,3450,3896,3158,2828,3639,3539,3176,3553,3678,3615,3413,3215,4573,4086,4411,4153,4418,4534,4328,4543,5557
50.1615,7027,6193,6157,6218,8761,7321,7480,5784,7158,7185,6320,10022,8663,6900,7685,7388,6858,6410,7346,5814,9735,8839,7359,8024,7211,6605,7535,6288,6744,5970,7783,6225,6494,6067,6021,7389,5989,6157,6537,6194,7408,6787,9010,5676,6530,7540,6288,6429,6844,7028,6433,5657,9282,5728,5642,7753,6059,6814,6479,6665,7016,7229,7955,7604,8432,7429,7513,7078,5479,4592,9332,5500,4887,6919,6868,7946,6794,7343,5037,6343,4268,6686,4659,3751,4167,4227,4936
50.782,2932,2939,2827,2989,3104,2990,3200,3050,3110,2800,2800,3150,3147,2952,2987,3186,3513,3013,3032,3220,3092,3015,3154,3089,3146,3487,3564,3056,3406,3140,3252,2955,3077,3310,3449,3185,3372,3630,3437,3033,3174,3350,2781,2979,2955,3220,3203,3017,3289,3465,3221,3195,3169,3210,3196,3282,3340,3210,3328,3312,3359,3169,3324,3453,3840,3256,3226,3336,3015,2593,3668,3300,3036,3261,3589,3369,3226,3255,3816,3496,3446,3594,3626,3416,3341,3346,3977
51.4026,2660,2557,2603,2771,2844,2707,2868,2702,2695,2464,2417,2932,3064,2847,2773,3146,3327,2859,2792,3116,2965,3190,2986,2791,3081,3460,3384,2882,3301,3006,3148,2821,3040,3286,3229,3243,3364,3298,3280,2953,3103,3221,2766,2987,2979,3066,3237,2973,3255,3399,3271,3301,3293,3338,3179,3174,3605,3122,3064,3286,3256,3062,3224,3397,3403,3211,3161,3222,2757,2646,3457,3125,2735,3415,3410,3400,3238,3228,3340,3562,3195,3643,3314,3074,2907,2891,3599
52.0231,2605,2550,2517,2602,2690,2573,2762,2583,2694,2299,2384,2999,3066,3427,2926,3678,3852,3087,2755,3747,2990,3083,3144,3696,3345,4470,4375,2935,3295,3063,4052,2969,3606,4185,4447,4207,4768,4727,4004,2954,3087,4301,2656,3047,4060,4357,4399,3958,4340,4360,4607,3800,5328,4870,3242,4097,5224,4401,3424,4509,3798,3191,4078,4303,3403,3888,3966,4277,3871,4498,3769,4186,3794,4324,4545,3312,3297,3547,4200,4825,3475,4792,4200,3477,3245,3292,3553
52.6436,2589,2522,2603,2657,2735,2744,2781,2634,2773,2438,2275,2962,2977,2867,2894,3077,3217,2753,2776,3066,2965,3006,3039,2875,3009,3282,3412,3079,3307,2986,3191,2895,2938,3234,3092,3128,3329,3313,3138,2982,3080,3074,2732,2761,2957,3007,3074,3072,3161,3269,3083,3188,3218,3233,3110,3209,3458,3083,3064,3112,3162,2932,3287,3338,3514,2939,2904,3154,3275,2850,3503,3269,3154,3183,3397,3312,3309,3159,3747,3335,3318,3468,3493,2851,2856,2773,3386
53.2642,2675,2703,2664,2816,2832,2847,2900,2966,2922,2634,2434,3021,3153,2842,3016,3204,3262,2723,3013,3134,3036,3135,3064,2918,3066,3244,3352,3005,3279,3128,3239,2860,3034,3194,3155,3280,3183,3436,3135,2988,3032,3326,2876,2913,2984,3249,3239,3134,3273,3453,3327,3281,3319,3239,3270,3245,3545,3224,2973,3386,3118,3220,3299,3474,3578,3154,3030,3214,2881,2845,3644,3371,2894,3147,3494,3543,3279,3239,3497,3291,3225,3416,3420,3064,3068,2986,3644
53.8847,3123,3075,3112,3179,3257,3092,3254,3143,3237,2837,2839,3051,3274,2838,2984,3063,3014,2662,3010,3180,3192,3400,3067,2689,3029,3209,3239,3044,3568,3205,3080,2890,3018,3142,3084,3122,2875,3276,3008,3185,3418,3218,3000,2964,3003,3080,3068,3004,3227,3333,3157,3194,2935,3127,3434,3088,2809,2948,3152,3179,3077,3320,3244,3131,3684,2996,2899,3108,2859,2539,3581,3367,2747,3003,3407,3635,3377,3312,3052,2951,2730,3076,2896,2611,2606,2580,3268
54.5053,3351,3155,3218,3421,3412,3337,3414,3395,3459,3076,3093,3247,3375,2968,3071,3140,3311,2912,3105,3291,3341,3360,3145,2860,3051,3466,3485,3072,3490,3382,3188,2954,3219,3182,3263,3256,3276,3233,3183,3275,3492,3279,3148,3091,3006,3171,3237,3159,3446,3283,3349,3403,3152,3164,3520,3435,3284,2984,3171,3379,3284,3375,3373,3385,3840,3009,3082,3138,2857,2594,3823,3655,2738,3205,3543,3580,3401,3298,3304,3207,3123,3249,3161,3027,2903,2941,3577
55.1258,3792,3704,3748,3846,3944,3717,3942,3855,3749,3575,3342,3413,3483,3136,3421,3194,3155,2946,3402,3460,3613,3662,3519,3143,3279,3331,3434,3339,3729,3416,3230,3273,3108,3186,3034,3384,3138,3382,3354,3312,3450,3336,3268,3142,3162,3205,3358,3290,3364,3410,3296,3392,3037,3165,3532,3283,3184,3195,3109,3396,3301,3448,3510,3183,4103,3081,3129,3162,3097,2757,4227,3586,2908,3150,3784,3745,3545,3295,3266,3124,2990,3328,3182,2809,2684,2892,3144
55.7464,3485,3460,3462,3491,3645,3488,3609,3496,3549,3251,3210,2924,3239,2825,2959,2991,2992,2588,2931,3052,3139,3160,3054,2692,2906,3081,3122,3112,3352,3062,2938,2883,2909,2929,2964,3085,2905,3145,3002,3012,3066,3056,2878,3045,2859,2845,2992,2848,3071,3061,2981,3067,2969,2976,2993,3070,2912,2884,3017,3020,3074,3117,3012,2974,3574,2823,2887,2987,2796,2628,3541,3312,2698,2916,3390,3429,3294,3165,3000,2777,2806,2991,2927,2519,2471,2449,3021
56.3669,3093,3061,3041,3240,3279,3156,3305,3270,3188,2891,2753,2943,3219,2914,2982,3168,3146,2786,2905,3303,3141,3174,3101,3136,3058,3348,3578,3049,3340,3133,3290,2988,3174,3352,3308,3238,3311,3527,3210,2968,3167,3292,2967,2963,3150,3164,3261,3241,3399,3291,3275,3264,3224,3317,3183,3301,3654,3143,3073,3386,3227,3138,3320,3308,3618,3136,3140,3206,3317,2878,3613,3465,3276,3083,3557,3556,3384,3147,3949,3388,3854,3550,3785,3687,3349,3441,3358
56.9875,2981,3100,3047,3117,3223,3055,3263,3169,3190,2764,2956,3071,3085,3040,3084,3258,3243,2791,3060,3154,3162,3272,3372,3090,3252,3322,3598,3237,3487,3115,3193,3001,3018,3218,3144,3153,3271,3466,3270,3002,3178,3204,2986,3048,3085,3035,3031,3011,3198,3114,3097,3195,3268,3186,3232,3200,3362,3121,3147,3116,3091,3132,3183,3161,3609,3172,3050,3054,3404,2931,3578,3393,3381,3070,3399,3519,3378,3212,3613,3222,3394,3395,3554,3187,3043,3079,3398
57.608,5144,5191,5337,5037,5433,5442,5310,4820,5731,5366,4957,4006,4166,3893,4046,3880,3712,3522,4413,3661,4357,4362,4135,3975,3903,3867,3859,4644,4798,4424,3678,3981,3651,3727,3521,4025,3254,3770,3550,4213,4225,3713,4584,3922,3489,3307,3556,3699,3551,3449,3493,3747,3401,3552,3996,3495,3239,3495,3487,3412,3645,3528,3353,3281,3743,3502,3304,3434,3419,3610,3745,3768,3390,3412,3866,4704,4214,4013,2965,3037,2723,3241,2843,2524,2540,2561,3199
58.2286,2891,2790,2874,2934,2993,2895,2986,2881,2972,2586,2667,2974,3119,2906,2935,3138,3017,2649,2974,3012,3104,3199,3245,2792,2965,3133,3229,3179,3416,3302,2993,2905,2977,3017,2943,3042,2846,3164,2995,2910,3201,3192,2929,2966,2913,3040,2981,2824,3158,3135,3045,3079,2960,2957,3120,3131,2911,2952,2940,3082,3064,3115,3078,3050,3455,2951,2878,3024,2860,2638,3399,3326,2865,2931,3378,3479,3281,3165,3036,2844,2811,3059,2837,2566,2504,2488,3095
58.8491,2710,2743,2851,2868,2961,2779,2933,2877,2839,2556,2610,2886,3124,2836,2900,2988,3071,2664,2937,2930,3099,3059,3066,2748,3054,3056,3242,2926,3296,3112,3019,2878,2896,2990,3007,3112,3042,3207,2933,3007,3023,3083,2778,2871,2866,2938,3012,2880,3102,3157,3073,2995,2988,3178,3251,3119,3170,2912,2964,2998,3058,3004,3132,3135,3594,2866,2900,2945,2838,2533,3571,3233,2719,3076,3433,3504,3245,3083,3006,3065,2827,3083,2977,2745,2628,2495,3153
59.4696,2817,2805,2805,2922,3011,2865,2951,2861,2970,2670,2682,2962,3109,2774,2897,3008,3128,2782,2822,2893,3009,3003,3065,2859,2931,2999,3288,2927,3362,3112,3014,2817,2954,3183,3101,3078,3016,3396,3044,2947,3010,3113,2721,2856,2901,2909,3050,2876,3051,3242,3105,3085,3058,3027,3079,3080,3179,3096,3101,3136,3065,3104,3165,3199,3504,2963,2885,3041,2789,2599,3463,3296,2796,2998,3450,3396,3262,3079,3053,2929,2802,3206,2828,2715,2583,2619,2885
60.0902,4376,4532,4398,4772,4242,4123,4657,4402,4285,4272,4119,4742,5075,4534,4923,4453,4127,4261,5157,4251,4538,4745,4630,4947,4458,4350,4441,4426,4840,4480,4365,3884,4226,4197,4163,4405,4533,4434,4759,4577,4820,4464,4204,3979,4202,4508,4371,4261,4044,4428,4256,4157,3969,4076,4499,4833,4014,3983,4175,4084,4181,5275,4630,4700,5623,4722,4411,4329,3727,3243,6576,4246,3590,4909,4701,4851,4721,4269,3914,4183,3553,4152,3722,3411,3513,3406,3797
60.7107,5121,4875,5013,4999,5196,5047,5311,5359,5447,5001,5038,4049,4313,3739,4059,3918,3460,3152,3984,3817,3952,4301,3864,3787,3541,3563,3617,4139,4471,4234,3417,3966,3391,3613,3473,4005,3480,3715,3796,4184,4210,3616,4446,3751,3542,3489,3560,3534,3561,3459,3488,3737,3382,3463,4140,3514,3342,3515,3766,3540,3874,3585,3458,3347,4280,3446,3227,3424,3420,3477,3867,3823,3259,3457,3912,4530,4349,4149,3533,3216,3164,3353,3403,2906,2811,2825,3177
61.3313,3272,3266,3320,3422,3480,3268,3458,3409,3560,3066,3207,3410,3631,3495,3302,3797,3692,3229,3407,3761,3628,3673,3583,3615,3656,3926,3965,3461,3871,3649,3661,3448,3450,3692,3763,3712,3752,4112,3806,3421,3578,3935,3452,3336,3605,3757,3642,3491,3791,3710,3693,3780,3626,3741,3439,3686,3736,3588,3450,3872,3679,3416,3558,3501,3920,3547,3587,3603,3736,3583,3975,3907,3609,3474,4039,4045,3694,3698,3766,3631,3434,3660,3708,3080,3014,3036,3299
61.9518,3350,3234,3315,3503,3412,3401,3600,3437,3489,3192,3196,2946,3101,2880,2872,3039,3042,2656,2957,3088,3202,3130,2988,2797,2926,3100,3256,3012,3258,3197,2980,2847,2936,3006,3145,3124,3003,3320,3120,2938,3023,3189,2922,2816,2827,2940,2971,2948,3066,3159,3017,3128,2951,3116,3175,2957,3234,3079,3039,3059,3108,3144,3224,3153,3608,2990,2797,3073,2814,2629,3475,3190,2917,2967,3464,3413,3271,3175,3319,3145,3272,3248,3151,2854,2779,2899,3433
62.5724,3415,3293,3271,3633,3543,3422,3626,3520,3418,3128,3031,3111,3354,2925,2983,3086,3334,2902,2934,3489,3209,3139,3052,2764,2885,3512,3638,3053,3447,3184,3193,2958,2946,3302,3220,3159,3314,3553,3415,2945,3245,3497,2973,2867,2884,3166,3107,2987,3555,3330,3430,3398,3020,3155,3458,3542,3295,3071,3204,3392,3159,3307,3296,3409,3763,3084,3082,3371,2726,2492,3600,3472,2848,3171,3556,3472,3264,3090,3327,3238,3019,3318,3338,3021,2985,3048,3615
63.1929,2994,3024,3107,3138,3070,3108,3249,3162,3255,2856,2870,3230,3320,2941,3077,3448,3224,2902,3225,3219,3319,3435,3400,3074,3156,3378,3432,3283,3713,3373,3265,3012,3091,3346,3249,3407,3228,3496,3211,3337,3187,3457,3062,3065,3143,3214,3290,3096,3341,3326,3239,3300,3295,3394,3255,3190,3201,3254,3268,3333,3264,3191,3382,3208,3508,3213,3139,3267,2934,2768,3716,3464,2935,3142,3691,3747,3413,3349,3289,3101,2835,3214,3029,2736,2824,2896,3552
63.8135,2744,2732,2718,2903,2935,2777,2875,2831,2848,2512,2509,2918,3094,2738,2970,3208,3024,2702,2884,2989,3105,3029,2988,2754,2955,3168,3180,2949,3366,3026,3074,2860,2873,3219,3098,3061,3073,3280,3107,2899,3043,3175,2816,2950,2897,3069,3095,2958,3188,3228,3206,3247,3130,3120,3217,3191,3158,2966,2926,3158,3138,3129,3217,3312,3539,3002,2971,3078,2784,2595,3544,3279,2766,3072,3371,3408,3221,3156,3184,3061,2988,3222,3043,2817,2779,2769,3592
64.434,2672,2702,2648,2876,2808,2793,2885,2782,2855,2505,2472,3008,3025,2812,2991,3023,3131,2782,2845,3101,3001,3069,3037,2777,2922,3183,3458,2999,3310,3067,3073,2873,2948,3143,3047,3137,2963,3352,3068,2954,3163,3217,2863,2773,2894,3096,3107,2919,3400,3285,3213,3279,3057,3143,3224,3310,3038,2896,3012,3108,3152,3089,3067,3363,3407,3032,2884,3158,2799,2584,3489,3425,2797,2969,3421,3414,3318,3253,3097,3111,2911,3247,3090,2633,2594,2531,3138
65.05456,2889,2869,2871,2818,2993,2858,2905,2863,3027,2609,2672,3148,3058,2974,3063,3380,3618,3242,3088,3331,3167,3187,3299,3068,3261,3601,3684,3276,3434,3220,3372,3044,3331,3413,3657,3372,3223,3658,3378,3057,3177,3520,3118,3072,3087,3304,3296,3118,3637,3560,3486,3301,3589,3620,3012,3500,3550,3531,3281,3384,3246,3127,3301,3665,3445,3290,3292,3370,3096,3017,3613,3513,3049,3130,3553,3484,3354,3285,3009,3254,2823,3441,2943,2542,2541,2483,2966
65.6751,3098,3216,3335,3244,3433,3363,3297,3345,3281,3123,3035,3317,3361,3119,3082,3383,3402,3126,3346,3328,3460,3376,3294,3250,3331,3596,3606,3338,3674,3546,3324,3232,3231,3483,3673,3427,3287,3554,3366,3344,3273,3468,3275,3190,3227,3418,3545,3100,3520,3529,3443,3302,3242,3373,3310,3517,3421,3415,3577,3356,3481,3230,3428,3575,3472,3324,3418,3488,3026,2950,3689,3590,2994,3192,3571,3573,3495,3471,3869,3218,3577,3556,3774,3351,3334,3385,3338
66.2957,2552,2482,2453,2715,2688,2461,2682,2579,2624,2319,2267,2804,2955,2787,2796,3114,3149,2583,2676,3027,2946,2866,2931,2945,3045,3286,3440,2863,3183,2945,3074,2845,2999,3133,3251,3062,3105,3380,3195,2908,2822,3323,2772,2792,2956,3011,3160,2924,3261,3304,3344,3075,3011,3088,2977,3433,3291,3050,3130,3140,3069,2915,3237,3053,3367,3078,3069,3120,3303,2703,3432,3381,3339,2984,3326,3339,3138,3153,3788,3199,3462,3439,3598,3111,3020,2999,3229
66.9162,2497,2493,2517,2489,2717,2501,2721,2544,2566,2367,2330,2626,2954,2619,2722,2813,2903,2614,2690,2786,2812,2725,2790,2804,2928,3060,3116,2600,3095,2948,2775,2716,2790,2905,2830,3026,2900,3100,2836,2736,2879,3023,2644,2608,2783,2755,2859,2743,3077,3138,2967,2937,2923,2993,2850,2980,2906,2701,2957,2934,3005,2824,2944,2922,3137,2805,2858,2884,2846,2367,3368,3062,2827,2764,3186,3273,2926,2922,3021,2919,2783,3161,2901,2659,2467,2651,3050
67.5367,2623,2491,2416,2644,2698,2572,2855,2723,2692,2464,2332,2900,3053,2981,2909,3099,3301,2964,2841,3201,2962,2919,3067,2981,3211,3310,3586,2890,3163,3018,3214,2908,3156,3387,3501,3231,3388,3619,3207,2937,2944,3274,2709,2762,3214,3253,3334,3126,3344,3577,3489,3264,3316,3391,3072,3610,3651,3308,3236,3275,3384,3028,3307,3491,3616,3231,3225,3333,2845,2734,3742,3423,2894,3267,3718,3348,3260,3209,3301,3233,3077,3479,3276,3022,2966,3028,3479
68.1573,4753,4126,4679,4723,5027,5030,4967,4788,4451,4881,4195,5675,5791,4840,5369,4482,4677,4399,5137,4592,5685,5410,5111,5040,4702,4493,4888,4269,5030,4468,5095,4278,4849,4568,4637,4757,4786,4865,4919,4660,4850,6103,4968,4319,4608,5047,4757,4689,4978,4974,4941,4672,4346,4593,4617,5967,4358,4525,4585,4898,5074,5460,5471,5541,5997,4996,5148,4688,3785,4011,7298,4460,3704,5014,5135,5068,5316,5146,3891,4482,3688,4527,3882,3228,3354,3320,3945
68.7778,2565,2579,2555,2713,2770,2704,2694,2605,2670,2403,2278,2847,3042,2753,2852,2898,3014,2673,2788,2960,3024,3004,2975,2823,2948,3166,3299,2950,3155,3070,3054,2750,2913,3043,3052,3014,3200,3173,2959,2860,2965,3069,2737,2788,2873,2983,2972,2928,3062,3247,3152,2990,3096,3147,3015,3138,3144,2913,2915,3089,3061,3124,3054,3064,3309,2898,2875,2983,2613,2406,3511,3211,2479,3199,3392,3458,3264,3063,3172,3183,2990,3133,3165,2996,2797,2893,3516
69.3984,2923,2900,2875,2972,3001,2879,2993,2996,3096,2654,2559,2813,2862,2724,2785,2991,2966,2567,2891,2910,3074,3037,3021,2605,2870,3099,3058,2880,3208,3058,2869,2849,2730,2837,2925,2995,2916,3099,2824,2923,2927,3033,2898,2691,2683,2831,2942,2783,2948,3017,2872,2914,2894,3008,3064,2906,2986,2806,2936,2938,3051,2957,2924,2982,3334,2792,2691,2937,2565,2387,3371,3121,2545,2843,3118,3344,3210,2970,3046,2889,2719,2971,2846,2524,2593,2537,3219
69.8187,2641,2559,2625,2635,2816,2625,2795,2737,2786,2432,2422,2767,2869,2600,2767,2726,2928,2501,2738,2794,2972,2820,2828,2613,2747,2922,3054,2829,3198,2835,2906,2668,2698,2883,2853,2875,2854,3116,2769,2829,2853,2925,2612,2650,2647,2703,2838,2760,2886,2966,2870,3046,2813,2730,3029,3010,2864,2681,2758,2789,2867,2975,2850,2953,3283,2701,2802,2831,2485,2292,3344,3073,2483,2776,3260,3377,3079,2947,3106,2895,2799,2895,2984,2767,2711,2683,3264